participant,event_id,encoding.thisN,theme,object_label,person_label,place_label,resp_encSpace.rt,retrieval.thisN,resp_ret_vividness.keys,resp_ret_vividness.rt,q1_type,q2_type,q3_type,resp_gistmem1.corr,resp_gistmem1.rt,resp_gistmem1.keys,resp_gistmem2.corr,resp_gistmem2.rt,resp_gistmem2.keys,resp_gistmem3.corr,resp_gistmem3.rt,resp_gistmem3.keys,resp_detailmem1.corr,resp_detailmem1.rt,resp_detailmem1.keys,resp_detailmem2.corr,resp_detailmem2.rt,resp_detailmem2.keys,resp_detailmem3.corr,resp_detailmem3.rt,resp_detailmem3.keys,familiarity.thisN,resp_facefam.keys,resp_facefam.rt,resp_ret_confidence.keys,resp_ret_confidence.rt,ep1,ep2,ep3,ep4,ep5,ep6,ep7,ep8,sem1,sem2,sem3,sem4,sem5,sem6,spa1,spa2,spa3,spa4,spa5,spa6,fut1,fut2,fut3,fut4,fut5,fut6,per_1,per_2,per_3,per_4,sun_1,sun_2,sun_3,sun_4,shop_1,shop_2,shop_3,shop_4,scene_1,scene_2,scene_3,scene_4,age
100,17,1,Summer,Puppy,Sandra,Circus,15.0042,9,1.703703739,1.3388,object,person,place,0,18.0,3,0,3.8666,3,1,5.6884,1,1,1.9037,2,1,1.5881,1,0,1.067,1,3,1,0.442,2.300925855,1.9113,4,2,4,4,2,2,4,4,2,4,1,4,2,2,2,4,5,2,4,5,4,4,2,4,4,2,4,3,2,4,4,4,5,5,5,3,4,2,5,4,5,4,0
100,11,2,Games,Binoculars,Harrison,Lake,12.2719,6,5.805555697,0.4241,object,place,person,1,3.17,3,1,0.9165,2,1,3.1943,2,0,1.6135,2,1,1.9508,1,1,2.3464,2,10,2,2.0348,5.805555697,1.6655,4,2,4,4,2,2,4,4,2,4,1,4,2,2,2,4,5,2,4,5,4,4,2,4,4,2,4,3,2,4,4,4,5,5,5,3,4,2,5,4,5,4,0
100,18,3,DIY,Chair,Beyonce,Winecellar,18.8351,15,5.888889171,0.561,person,object,place,1,2.1939,2,1,1.0703,3,1,1.9087,4,1,1.3843,2,1,0.5099,1,0,2.4026,2,8,1,0.3454,5.888889171,1.0555,4,2,4,4,2,2,4,4,2,4,1,4,2,2,2,4,5,2,4,5,4,4,2,4,4,2,4,3,2,4,4,4,5,5,5,3,4,2,5,4,5,4,0
100,4,4,Exercise,Beachball,Will,Casino,10.3913,23,2.462962892,1.585,object,person,place,1,4.0722,1,1,2.2218,2,1,1.1704,2,1,1.5167,1,0,2.2024,1,1,1.5095,1,13,1,0.326,3.64814836,2.1042,4,2,4,4,2,2,4,4,2,4,1,4,2,2,2,4,5,2,4,5,4,4,2,4,4,2,4,3,2,4,4,4,5,5,5,3,4,2,5,4,5,4,0
100,10,5,Work,Easel,Sean,Aquarium,16.0599,18,5.370370794,2.2192,object,place,person,1,5.1333,2,1,1.853,4,1,2.5006,4,1,1.1682,1,1,2.2446,2,0,2.1594,2,2,3,1.0499,4.462963104,1.6354,4,2,4,4,2,2,4,4,2,4,1,4,2,2,2,4,5,2,4,5,4,4,2,4,4,2,4,3,2,4,4,4,5,5,5,3,4,2,5,4,5,4,0
100,15,6,Celebration,Football,Meryl,Harbor,12.1179,14,5.888889171,0.4588,object,person,place,1,6.0648,1,1,1.9305,3,1,1.9592,4,0,1.2049,1,1,2.6581,1,0,1.2225,2,1,1,1.8574,5.888889171,1.6379,4,2,4,4,2,2,4,4,2,4,1,4,2,2,2,4,5,2,4,5,4,4,2,4,4,2,4,3,2,4,4,4,5,5,5,3,4,2,5,4,5,4,0
100,5,7,Party,Satchel,Judi,Bowling,10.6002,19,5.935185468,0.928,place,person,object,1,7.1358,3,1,2.6914,3,1,1.9158,1,1,2.7027,2,0,1.305,2,1,0.8504,2,19,2,1.2865,5.370370794,1.184,4,2,4,4,2,2,4,4,2,4,1,4,2,2,2,4,5,2,4,5,4,4,2,4,4,2,4,3,2,4,4,4,5,5,5,3,4,2,5,4,5,4,0
100,7,8,Art,Headphones,Nicole,Avenue,6.0039,24,4.162037178,0.4062,person,object,place,0,13.3398,4,1,1.9393,2,1,1.4713,3,1,2.2849,1,0,0.6207,1,0,0.769,2,7,3,0.6758,4.162037178,2.0353,4,2,4,4,2,2,4,4,2,4,1,4,2,2,2,4,5,2,4,5,4,4,2,4,4,2,4,3,2,4,4,4,5,5,5,3,4,2,5,4,5,4,0
100,12,9,Studying,Trampoline,Elvis,Classroom,9.7178,10,1.805555626,0.4862,place,person,object,1,7.8775,4,1,2.3248,4,1,1.7074,4,1,1.638,2,1,1.2018,2,1,1.3422,1,18,1,0.4812,1.805555626,1.7801,4,2,4,4,2,2,4,4,2,4,1,4,2,2,2,4,5,2,4,5,4,4,2,4,4,2,4,3,2,4,4,4,5,5,5,3,4,2,5,4,5,4,0
100,23,10,Eating,Hammock,Brad,Restaurant,13.6449,8,5.268518377,1.1279,person,object,place,1,9.1345,1,1,0.9737,3,1,1.1908,3,1,1.2359,1,1,1.3786,2,1,1.2131,2,22,2,1.2948,5.060185044,1.763,4,2,4,4,2,2,4,4,2,4,1,4,2,2,2,4,5,2,4,5,4,4,2,4,4,2,4,3,2,4,4,4,5,5,5,3,4,2,5,4,5,4,0
100,19,11,Holiday,Wine,Julia,Pool,3.1863,21,1.009259295,0.4121,person,object,place,0,8.433,4,0,4.2182,1,0,5.9073,4,1,2.1651,2,1,0.6495,1,1,1.1262,2,12,2,0.7799,1.009259295,2.1075,4,2,4,4,2,2,4,4,2,4,1,4,2,2,2,4,5,2,4,5,4,4,2,4,4,2,4,3,2,4,4,4,5,5,5,3,4,2,5,4,5,4,0
100,16,12,Winter,Record,David,DiningRoom,5.2966,11,5.194444727,1.9742,place,person,object,0,5.6397,1,1,1.2967,2,1,2.4964,3,1,1.1061,1,1,1.1385,1,1,1.4532,1,14,1,0.3409,4.069444586,1.9484,4,2,4,4,2,2,4,4,2,4,1,4,2,2,2,4,5,2,4,5,4,4,2,4,4,2,4,3,2,4,4,4,5,5,5,3,4,2,5,4,5,4,0
100,3,13,Music,Bike,Hugh,Lighthouse,3.3424,4,4.564814815,1.9076,person,place,object,0,11.7805,2,1,7.3857,1,1,3.1198,1,1,1.7102,2,1,2.5589,2,1,1.6478,2,9,1,0.3693,3.625000212,2.6766,4,2,4,4,2,2,4,4,2,4,1,4,2,2,2,4,5,2,4,5,4,4,2,4,4,2,4,3,2,4,4,4,5,5,5,3,4,2,5,4,5,4,0
100,24,14,Family,Extinguisher,Anne,Basketball,4.1787,13,5.768518519,0.59,person,place,object,1,3.2539,4,1,0.9853,2,1,1.3299,3,1,3.724,1,1,1.4849,1,0,1.134,1,5,1,0.6286,5.768518519,1.5376,4,2,4,4,2,2,4,4,2,4,1,4,2,2,2,4,5,2,4,5,4,4,2,4,4,2,4,3,2,4,4,4,5,5,5,3,4,2,5,4,5,4,0
100,6,15,Sightseeing,Ladder,Keanu,Beach,14.8386,7,5.833333757,0.7191,object,place,person,1,2.9677,2,1,2.0081,1,1,1.9127,3,1,1.1879,2,0,0.7833,1,1,2.0522,2,6,1,0.6013,5.944444586,1.6474,4,2,4,4,2,2,4,4,2,4,1,4,2,2,2,4,5,2,4,5,4,4,2,4,4,2,4,3,2,4,4,4,5,5,5,3,4,2,5,4,5,4,0
100,9,16,Shopping,Duster,Robin,Kitchen,6.1943,3,5.222222081,3.0296,place,object,person,1,4.7736,4,1,1.739,2,1,10.3011,1,1,1.709,2,1,1.1298,1,1,3.0011,1,16,1,0.4721,4.499999929,1.9491,4,2,4,4,2,2,4,4,2,4,1,4,2,2,2,4,5,2,4,5,4,4,2,4,4,2,4,3,2,4,4,4,5,5,5,3,4,2,5,4,5,4,0
100,14,17,Relaxing,Stroller,Dolly,Ski,6.795,17,5.462963387,0.7354,place,person,object,1,2.3335,1,1,2.542,1,1,0.8401,2,1,1.0674,2,1,1.1399,2,1,0.8737,1,24,1,0.436,5.800925785,1.608,4,2,4,4,2,2,4,4,2,4,1,4,2,2,2,4,5,2,4,5,4,4,2,4,4,2,4,3,2,4,4,4,5,5,5,3,4,2,5,4,5,4,0
100,8,18,Competition,Goggles,Princess,Savannah,12.6786,12,5.902778202,0.4282,place,object,person,1,4.1338,1,1,1.8065,1,1,1.5174,4,1,0.9909,1,0,0.7786,1,1,1.7674,1,23,1,0.4741,5.902778202,1.4626,4,2,4,4,2,2,4,4,2,4,1,4,2,2,2,4,5,2,4,5,4,4,2,4,4,2,4,3,2,4,4,4,5,5,5,3,4,2,5,4,5,4,0
100,1,19,Date,Jug,Helena,Studio,7.1627,22,5.972222646,1.0979,person,place,object,1,3.9056,3,1,1.6076,3,1,0.7794,2,1,1.4053,1,0,0.6333,1,1,0.7163,2,21,1,0.5066,5.972222646,1.581,4,2,4,4,2,2,4,4,2,4,1,4,2,2,2,4,5,2,4,5,4,4,2,4,4,2,4,3,2,4,4,4,5,5,5,3,4,2,5,4,5,4,0
100,20,20,Friends,Backpack,Daniel,Bridge,2.9166,1,5.888889171,2.3102,object,place,person,1,6.0193,3,1,9.0453,4,1,3.2726,2,1,3.7505,2,1,1.5005,1,1,1.5303,1,15,1,0.2716,5.856481905,2.6522,4,2,4,4,2,2,4,4,2,4,1,4,2,2,2,4,5,2,4,5,4,4,2,4,4,2,4,3,2,4,4,4,5,5,5,3,4,2,5,4,5,4,0
100,2,21,Volunteer,Flowers,Jennifer,Waterfall,4.0267,5,5.962962822,0.4738,person,place,object,1,3.6269,1,1,1.6516,3,1,1.1761,4,1,2.1226,2,1,1.2607,1,1,1.9243,1,4,1,0.5065,5.962962822,1.6976,4,2,4,4,2,2,4,4,2,4,1,4,2,2,2,4,5,2,4,5,4,4,2,4,4,2,4,3,2,4,4,4,5,5,5,3,4,2,5,4,5,4,0
100,13,22,Errands,Stopwatch,Tom,Icerink,6.4299,20,5.222222081,0.7095,place,object,person,1,6.6548,3,1,1.6103,4,1,2.216,1,1,1.1881,1,1,0.8445,1,0,0.8872,1,20,2,0.4008,4.814814885,2.3974,4,2,4,4,2,2,4,4,2,4,1,4,2,2,2,4,5,2,4,5,4,4,2,4,4,2,4,3,2,4,4,4,5,5,5,3,4,2,5,4,5,4,0
100,22,23,Travel,Computer,George,Field,7.5923,16,4.981481481,0.4443,object,person,place,1,4.4785,4,1,1.897,1,1,1.3169,1,1,1.0542,1,1,0.8237,2,1,1.3342,2,11,3,0.6629,4.981481481,1.769,4,2,4,4,2,2,4,4,2,4,1,4,2,2,2,4,5,2,4,5,4,4,2,4,4,2,4,3,2,4,4,4,5,5,5,3,4,2,5,4,5,4,0
100,21,24,Home,Gardengloves,Britney,Cabin,2.9448,2,4.736111323,1.9356,place,object,person,1,14.6101,2,1,4.0302,1,1,2.2473,3,1,3.1001,1,1,1.7166,2,1,4.1368,2,17,1,0.4177,5.037036896,1.774,4,2,4,4,2,2,4,4,2,4,1,4,2,2,2,4,5,2,4,5,4,4,2,4,4,2,4,3,2,4,4,4,5,5,5,3,4,2,5,4,5,4,0
101,16,1,Winter,Record,David,DiningRoom,12.2711,12,4.620370653,0.4805,place,person,object,0,7.4025,3,1,2.2208,2,1,3.2697,3,0,1.5414,2,0,1.0891,2,1,0.7554,1,9,1,0.586,4.620370653,1.5403,3,3,3,3,3,3,3,3,3,3,3,3,3,3,3,3,3,3,3,3,3,3,3,3,3,3,4,4,4,4,5,5,5,5,5,5,5,5,5,5,5,5,0
101,4,2,Exercise,Beachball,Will,Casino,11.1195,22,2.152777778,0.4532,object,person,place,0,3.0512,4,1,2.3694,2,0,1.741,1,0,0.956,2,0,1.3852,1,1,1.0516,1,24,1,0.2094,2.157407549,1.2253,3,3,3,3,3,3,3,3,3,3,3,3,3,3,3,3,3,3,3,3,3,3,3,3,3,3,4,4,4,4,5,5,5,5,5,5,5,5,5,5,5,5,0
101,22,3,Travel,Computer,George,Field,8.5379,1,2.430555556,2.3337,object,person,place,0,7.7374,1,1,5.3397,1,1,4.8033,1,1,2.2239,1,1,1.4269,2,1,2.8021,2,6,1,0.6578,3.685185326,5.6671,3,3,3,3,3,3,3,3,3,3,3,3,3,3,3,3,3,3,3,3,3,3,3,3,3,3,4,4,4,4,5,5,5,5,5,5,5,5,5,5,5,5,0
101,10,4,Work,Easel,Sean,Aquarium,3.5869,14,1.611111111,0.9695,object,place,person,0,3.6671,4,1,2.6342,4,1,2.0791,4,0,1.2883,2,0,1.753,1,1,1.3085,1,17,1,0.7848,2.097222222,1.3898,3,3,3,3,3,3,3,3,3,3,3,3,3,3,3,3,3,3,3,3,3,3,3,3,3,3,4,4,4,4,5,5,5,5,5,5,5,5,5,5,5,5,0
101,2,5,Volunteer,Flowers,Jennifer,Waterfall,1.9127,7,4.981481764,0.7046,person,place,object,1,2.6568,1,1,4.8932,3,1,1.504,4,1,1.4307,2,1,1.1183,1,0,1.4502,2,15,1,0.2061,4.981481764,1.5364,3,3,3,3,3,3,3,3,3,3,3,3,3,3,3,3,3,3,3,3,3,3,3,3,3,3,4,4,4,4,5,5,5,5,5,5,5,5,5,5,5,5,0
101,14,6,Relaxing,Stroller,Dolly,Ski,10.5773,18,4.101851993,0.5223,place,person,object,1,2.9796,1,0,2.4149,4,1,0.9247,2,1,1.1866,2,0,1.4409,1,1,1.0564,1,4,1,0.4023,4.106481764,1.5656,3,3,3,3,3,3,3,3,3,3,3,3,3,3,3,3,3,3,3,3,3,3,3,3,3,3,4,4,4,4,5,5,5,5,5,5,5,5,5,5,5,5,0
101,15,7,Celebration,Football,Meryl,Harbor,7.3992,21,1.958333333,0.6362,object,person,place,1,3.353,1,0,0.957,1,0,1.7071,3,0,0.9854,1,0,0.8027,2,0,0.7566,2,1,1,2.035,1.675925997,2.008,3,3,3,3,3,3,3,3,3,3,3,3,3,3,3,3,3,3,3,3,3,3,3,3,3,3,4,4,4,4,5,5,5,5,5,5,5,5,5,5,5,5,0
101,5,8,Party,Satchel,Judi,Bowling,1.3292,3,1.962963104,1.5535,place,person,object,1,7.0587,3,0,3.634,1,0,2.3214,2,0,1.62,1,0,2.3207,2,0,1.071,1,12,2,0.7021,2.583333333,2.2327,3,3,3,3,3,3,3,3,3,3,3,3,3,3,3,3,3,3,3,3,3,3,3,3,3,3,4,4,4,4,5,5,5,5,5,5,5,5,5,5,5,5,0
101,11,9,Games,Binoculars,Harrison,Lake,3.4683,16,2.157407549,0.4424,object,place,person,1,4.25,3,0,2.4072,4,1,3.155,2,0,1.1476,2,1,1.32,1,1,0.967,2,14,1,0.3807,2.157407549,1.5233,3,3,3,3,3,3,3,3,3,3,3,3,3,3,3,3,3,3,3,3,3,3,3,3,3,3,4,4,4,4,5,5,5,5,5,5,5,5,5,5,5,5,0
101,13,10,Errands,Stopwatch,Tom,Icerink,12.0514,6,1.069444444,0.4186,place,object,person,0,3.9568,1,1,2.1547,4,0,2.771,3,0,1.4481,2,0,0.908,2,0,1.0383,1,13,1,0.6684,1.069444444,1.8028,3,3,3,3,3,3,3,3,3,3,3,3,3,3,3,3,3,3,3,3,3,3,3,3,3,3,4,4,4,4,5,5,5,5,5,5,5,5,5,5,5,5,0
101,3,11,Music,Bike,Hugh,Lighthouse,0.0957,4,1.273148219,1.5661,person,place,object,1,4.2548,4,1,6.0524,1,0,2.4203,3,1,1.5905,2,0,1.4056,1,1,1.2938,2,21,2,1.2066,1.819444444,2.1184,3,3,3,3,3,3,3,3,3,3,3,3,3,3,3,3,3,3,3,3,3,3,3,3,3,3,4,4,4,4,5,5,5,5,5,5,5,5,5,5,5,5,0
101,12,12,Studying,Trampoline,Elvis,Classroom,11.1726,8,3.425926208,0.431,place,person,object,1,5.1691,4,0,2.8233,3,1,1.4385,4,0,1.351,1,1,0.9048,2,1,0.7293,1,8,1,1.0862,3.425926208,1.6205,3,3,3,3,3,3,3,3,3,3,3,3,3,3,3,3,3,3,3,3,3,3,3,3,3,3,4,4,4,4,5,5,5,5,5,5,5,5,5,5,5,5,0
101,23,13,Eating,Hammock,Brad,Restaurant,1.1421,15,4.16203732,1.2797,person,object,place,0,2.3191,3,1,4.2432,3,1,0.8017,3,1,1.3428,1,1,1.4544,2,1,1.2626,2,23,1,0.3373,4.115740882,1.7703,3,3,3,3,3,3,3,3,3,3,3,3,3,3,3,3,3,3,3,3,3,3,3,3,3,3,4,4,4,4,5,5,5,5,5,5,5,5,5,5,5,5,0
101,20,14,Friends,Backpack,Daniel,Bridge,2.0383,23,1.875,0.5241,object,place,person,0,3.381,2,0,0.7582,3,0,0.5164,3,0,1.3705,1,0,0.771,2,1,1.1358,1,3,1,0.4588,1.875,1.6966,3,3,3,3,3,3,3,3,3,3,3,3,3,3,3,3,3,3,3,3,3,3,3,3,3,3,4,4,4,4,5,5,5,5,5,5,5,5,5,5,5,5,0
101,21,15,Home,Gardengloves,Britney,Cabin,6.3661,5,1.069444444,1.5217,place,object,person,0,3.1562,1,0,2.7721,4,1,2.3372,3,1,1.5201,1,1,0.9052,2,1,1.5046,2,5,1,0.358,1.060185326,1.5537,3,3,3,3,3,3,3,3,3,3,3,3,3,3,3,3,3,3,3,3,3,3,3,3,3,3,4,4,4,4,5,5,5,5,5,5,5,5,5,5,5,5,0
101,7,16,Art,Headphones,Nicole,Avenue,13.866,24,2.189814885,0.48,person,object,place,0,3.3026,1,0,2.8367,3,1,2.8032,3,0,1.1038,2,0,0.7408,1,0,0.938,2,2,2,0.9002,2.189814885,1.2215,3,3,3,3,3,3,3,3,3,3,3,3,3,3,3,3,3,3,3,3,3,3,3,3,3,3,4,4,4,4,5,5,5,5,5,5,5,5,5,5,5,5,0
101,8,17,Competition,Goggles,Princess,Savannah,6.2573,19,2.694444444,0.505,place,object,person,1,4.5887,1,0,1.5054,3,0,2.7197,1,0,1.238,2,0,0.768,1,0,1.0075,2,10,1,4.0514,2.694444444,1.4279,3,3,3,3,3,3,3,3,3,3,3,3,3,3,3,3,3,3,3,3,3,3,3,3,3,3,4,4,4,4,5,5,5,5,5,5,5,5,5,5,5,5,0
101,24,18,Family,Extinguisher,Anne,Basketball,3.0376,9,1.212963104,0.872,person,place,object,0,3.1081,1,1,5.4526,2,0,2.3965,4,1,1.7554,1,1,0.9375,1,1,0.6476,2,7,1,0.7664,1.949074215,1.4713,3,3,3,3,3,3,3,3,3,3,3,3,3,3,3,3,3,3,3,3,3,3,3,3,3,3,4,4,4,4,5,5,5,5,5,5,5,5,5,5,5,5,0
101,6,19,Sightseeing,Ladder,Keanu,Beach,4.7602,17,2.351851993,0.4907,object,place,person,0,3.3523,1,0,4.5698,3,0,2.4891,2,0,1.3195,1,0,0.9667,1,1,1.4719,2,16,1,0.4021,2.351851993,1.3406,3,3,3,3,3,3,3,3,3,3,3,3,3,3,3,3,3,3,3,3,3,3,3,3,3,3,4,4,4,4,5,5,5,5,5,5,5,5,5,5,5,5,0
101,9,20,Shopping,Duster,Robin,Kitchen,3.7281,2,1.050925997,3.7917,place,object,person,0,10.9226,3,0,5.3455,3,0,2.2378,4,0,2.434,1,0,3.2406,2,1,1.2737,1,22,1,0.4606,1.00925933,2.2898,3,3,3,3,3,3,3,3,3,3,3,3,3,3,3,3,3,3,3,3,3,3,3,3,3,3,4,4,4,4,5,5,5,5,5,5,5,5,5,5,5,5,0
101,17,21,Summer,Puppy,Sandra,Circus,,13,1.629629771,0.7217,object,person,place,1,4.3367,4,1,1.4513,4,1,2.019,1,0,1.2295,1,1,1.506,1,0,1.6623,1,11,1,0.3518,2.00925933,1.6209,3,3,3,3,3,3,3,3,3,3,3,3,3,3,3,3,3,3,3,3,3,3,3,3,3,3,4,4,4,4,5,5,5,5,5,5,5,5,5,5,5,5,0
101,19,22,Holiday,Wine,Julia,Pool,0.6365,20,1.180555556,1.0724,person,object,place,0,3.1378,4,0,2.9714,2,0,1.8229,1,1,0.856,2,1,0.8054,1,0,0.8227,1,20,1,1.0446,1.180555556,1.91,3,3,3,3,3,3,3,3,3,3,3,3,3,3,3,3,3,3,3,3,3,3,3,3,3,3,4,4,4,4,5,5,5,5,5,5,5,5,5,5,5,5,0
101,18,23,DIY,Chair,Beyonce,Winecellar,15.2704,10,1.63425933,0.6718,person,object,place,0,3.9028,4,1,2.7052,3,1,1.8532,4,1,1.2124,2,1,0.9725,1,0,1.0709,2,19,1,0.4336,1.76851866,1.4469,3,3,3,3,3,3,3,3,3,3,3,3,3,3,3,3,3,3,3,3,3,3,3,3,3,3,4,4,4,4,5,5,5,5,5,5,5,5,5,5,5,5,0
101,1,24,Date,Jug,Helena,Studio,9.5016,11,1.740740882,0.4202,person,place,object,0,7.7342,2,0,3.5513,1,0,3.1711,3,1,1.2872,1,0,2.2384,1,1,0.807,2,18,1,0.5475,1.740740882,1.6753,3,3,3,3,3,3,3,3,3,3,3,3,3,3,3,3,3,3,3,3,3,3,3,3,3,3,4,4,4,4,5,5,5,5,5,5,5,5,5,5,5,5,0
102,24,1,Family,Extinguisher,Anne,Basketball,12.9057,17,4.119750977,1.6481,person,place,object,1,5.068,4,1,4.5747,2,1,1.4742,3,0,1.7393,2,1,1.3209,1,1,1.9449,2,1,2,2.7664,3.707788086,1.5648,2,1,4,3,4,3,2,3,3,2,3,2,3,4,4,5,3,1,4,5,4,4,3,4,4,3,3,4,3,4,2,4,3,4,4,3,4,4,3,3,3,2,0
102,22,2,Travel,Computer,George,Field,11.2745,6,3.797363281,1.012,object,person,place,1,10.3548,4,0,5.4084,4,1,5.6869,1,1,1.7236,1,0,3.6635,1,1,2.3468,2,21,2,2.293,3.725317383,1.0476,2,1,4,3,4,3,2,3,3,2,3,2,3,4,4,5,3,1,4,5,4,4,3,4,4,3,3,4,3,4,2,4,3,4,4,3,4,4,3,3,3,2,0
102,23,3,Eating,Hammock,Brad,Restaurant,13.7805,18,3.775952148,0.8939,person,object,place,0,3.9146,4,1,4.7037,3,1,0.7544,3,0,1.2916,2,1,1.2819,2,1,1.1592,2,8,2,1.1613,3.775952148,1.716,2,1,4,3,4,3,2,3,3,2,3,2,3,4,4,5,3,1,4,5,4,4,3,4,4,3,3,4,3,4,2,4,3,4,4,3,4,4,3,3,3,2,0
102,20,4,Friends,Backpack,Daniel,Bridge,15.654,15,4.862133789,1.3482,object,place,person,1,4.065,3,1,1.7621,4,1,1.4764,2,1,1.1564,2,1,1.0438,1,1,1.6136,1,2,1,1.3456,4.790527344,1.4687,2,1,4,3,4,3,2,3,3,2,3,2,3,4,4,5,3,1,4,5,4,4,3,4,4,3,3,4,3,4,2,4,3,4,4,3,4,4,3,3,3,2,0
102,17,5,Summer,Puppy,Sandra,Circus,8.882,22,4.361035156,1.3146,object,person,place,1,5.9244,4,0,2.1421,3,1,1.1247,1,1,1.0553,2,1,2.0472,1,0,1.2767,1,7,2,1.0428,4.058227539,1.7213,2,1,4,3,4,3,2,3,3,2,3,2,3,4,4,5,3,1,4,5,4,4,3,4,4,3,3,4,3,4,2,4,3,4,4,3,4,4,3,3,3,2,0
102,9,6,Shopping,Duster,Robin,Kitchen,13.8378,4,3.587133789,1.5851,place,object,person,1,4.0364,4,1,3.4504,2,1,3.9024,1,0,4.9538,1,1,1.5925,1,0,1.7083,2,9,1,0.9034,3.708203125,1.0833,2,1,4,3,4,3,2,3,3,2,3,2,3,4,4,5,3,1,4,5,4,4,3,4,4,3,3,4,3,4,2,4,3,4,4,3,4,4,3,3,3,2,0
102,5,7,Party,Satchel,Judi,Bowling,11.3755,13,3.983544922,1.4016,place,person,object,1,15.069,3,1,5.662,3,1,3.5609,1,1,3.5645,2,1,1.3897,1,1,1.2091,2,15,1,1.0376,3.646020508,1.4551,2,1,4,3,4,3,2,3,3,2,3,2,3,4,4,5,3,1,4,5,4,4,3,4,4,3,3,4,3,4,2,4,3,4,4,3,4,4,3,3,3,2,0
102,16,8,Winter,Record,David,DiningRoom,10.7375,11,3.283789063,1.2969,place,person,object,1,7.6013,2,0,3.3801,4,1,4.6748,3,1,1.3262,1,1,2.2458,1,1,0.8586,1,17,1,0.7906,3.564257813,1.5317,2,1,4,3,4,3,2,3,3,2,3,2,3,4,4,5,3,1,4,5,4,4,3,4,4,3,3,4,3,4,2,4,3,4,4,3,4,4,3,3,3,2,0
102,10,9,Work,Easel,Sean,Aquarium,13.7207,1,2.917944336,3.3533,object,place,person,1,9.1176,2,1,7.4259,4,1,5.5499,4,1,2.5623,1,1,2.1194,2,1,3.3975,1,4,3,1.558,3.598876953,4.147,2,1,4,3,4,3,2,3,3,2,3,2,3,4,4,5,3,1,4,5,4,4,3,4,4,3,3,4,3,4,2,4,3,4,4,3,4,4,3,3,3,2,0
102,8,10,Competition,Goggles,Princess,Savannah,12.8798,23,3.571557617,1.1693,place,object,person,1,9.1517,1,1,2.7845,1,1,2.3631,4,0,1.4777,2,1,2.6345,2,1,1.3691,1,13,1,0.7542,4.361035156,1.0781,2,1,4,3,4,3,2,3,3,2,3,2,3,4,4,5,3,1,4,5,4,4,3,4,4,3,3,4,3,4,2,4,3,4,4,3,4,4,3,3,3,2,0
102,19,11,Holiday,Wine,Julia,Pool,8.5848,3,3.708203125,1.6677,person,object,place,0,5.8437,2,1,4.6349,4,1,1.4746,2,1,2.5761,2,1,1.794,1,0,2.1785,1,10,2,0.5899,3.772143555,1.0964,2,1,4,3,4,3,2,3,3,2,3,2,3,4,4,5,3,1,4,5,4,4,3,4,4,3,3,4,3,4,2,4,3,4,4,3,4,4,3,3,3,2,0
102,7,12,Art,Headphones,Nicole,Avenue,12.2167,19,4.102001953,0.9606,person,object,place,0,4.9702,3,1,6.0789,2,1,2.3455,3,0,1.7297,2,1,2.3919,2,0,1.1602,2,12,2,0.4874,3.775952148,0.8944,2,1,4,3,4,3,2,3,3,2,3,2,3,4,4,5,3,1,4,5,4,4,3,4,4,3,3,4,3,4,2,4,3,4,4,3,4,4,3,3,3,2,0
102,2,13,Volunteer,Flowers,Jennifer,Waterfall,14.9978,10,3.642675781,1.4707,person,place,object,0,5.0931,4,1,1.9593,3,1,3.4911,4,0,2.4435,1,1,1.1215,1,1,1.2914,1,5,1,1.6628,4.075830078,2.0524,2,1,4,3,4,3,2,3,3,2,3,2,3,4,4,5,3,1,4,5,4,4,3,4,4,3,3,4,3,4,2,4,3,4,4,3,4,4,3,3,3,2,0
102,21,14,Home,Gardengloves,Britney,Cabin,8.4471,5,3.720922852,1.1637,place,object,person,1,6.1774,2,1,2.1727,1,0,3.3629,2,1,1.3707,1,1,1.0258,2,1,2.7616,2,19,2,0.8378,3.587133789,1.0132,2,1,4,3,4,3,2,3,3,2,3,2,3,4,4,5,3,1,4,5,4,4,3,4,4,3,3,4,3,4,2,4,3,4,4,3,4,4,3,3,3,2,0
102,18,15,DIY,Chair,Beyonce,Winecellar,14.5647,8,4.273657227,0.896,person,object,place,1,2.5621,2,1,4.1192,3,1,1.6425,4,1,2.4477,2,1,1.2797,1,1,1.6418,1,6,1,1.1906,4.254321289,1.3829,2,1,4,3,4,3,2,3,3,2,3,2,3,4,4,5,3,1,4,5,4,4,3,4,4,3,3,4,3,4,2,4,3,4,4,3,4,4,3,3,3,2,0
102,15,16,Celebration,Football,Meryl,Harbor,12.8949,7,3.586523438,1.7825,object,person,place,1,6.7571,1,1,3.0003,3,1,2.1255,4,1,1.4555,2,1,1.9792,1,1,1.3386,1,3,1,0.674,3.906640625,1.9842,2,1,4,3,4,3,2,3,3,2,3,2,3,4,4,5,3,1,4,5,4,4,3,4,4,3,3,4,3,4,2,4,3,4,4,3,4,4,3,3,3,2,0
102,11,17,Games,Binoculars,Harrison,Lake,9.7167,2,3.693676758,2.3509,object,place,person,1,6.4108,3,1,2.8452,2,1,4.1233,2,1,2.0278,1,1,1.4465,1,0,3.1261,1,14,2,0.4524,4.031738281,2.7356,2,1,4,3,4,3,2,3,3,2,3,2,3,4,4,5,3,1,4,5,4,4,3,4,4,3,3,4,3,4,2,4,3,4,4,3,4,4,3,3,3,2,0
102,1,18,Date,Jug,Helena,Studio,16.383,16,4.453979492,0.8121,person,place,object,0,7.381,4,1,2.3112,3,1,1.347,2,1,1.8901,1,0,4.3035,1,1,1.0757,2,24,1,0.8082,4.323413086,1.6194,2,1,4,3,4,3,2,3,3,2,3,2,3,4,4,5,3,1,4,5,4,4,3,4,4,3,3,4,3,4,2,4,3,4,4,3,4,4,3,3,3,2,0
102,14,19,Relaxing,Stroller,Dolly,Ski,11.9054,12,3.646020508,1.3128,place,person,object,1,4.8025,1,1,4.4553,1,1,1.4457,2,1,1.6254,2,1,1.913,2,1,1.1039,1,16,1,0.7073,3.797753906,1.2633,2,1,4,3,4,3,2,3,3,2,3,2,3,4,4,5,3,1,4,5,4,4,3,4,4,3,3,4,3,4,2,4,3,4,4,3,4,4,3,3,3,2,0
102,4,20,Exercise,Beachball,Will,Casino,12.7476,24,3.93359375,1.3278,object,person,place,1,5.8802,1,1,2.0361,2,1,0.9212,2,0,1.4778,2,1,1.742,2,0,1.3961,2,18,1,0.5365,4.226733398,1.2317,2,1,4,3,4,3,2,3,3,2,3,2,3,4,4,5,3,1,4,5,4,4,3,4,4,3,3,4,3,4,2,4,3,4,4,3,4,4,3,3,3,2,0
102,6,21,Sightseeing,Ladder,Keanu,Beach,10.7248,20,4.102001953,0.4985,object,place,person,1,2.979,2,1,1.7814,1,1,3.0471,3,1,3.2212,2,0,1.2758,1,1,1.6597,2,20,3,1.4905,4.102001953,1.0956,2,1,4,3,4,3,2,3,3,2,3,2,3,4,4,5,3,1,4,5,4,4,3,4,4,3,3,4,3,4,2,4,3,4,4,3,4,4,3,3,3,2,0
102,13,22,Errands,Stopwatch,Tom,Icerink,13.2127,9,3.44440918,1.3132,place,object,person,1,5.2731,3,1,2.1306,4,1,3.5295,1,0,2.2003,2,1,1.11,1,0,1.6578,1,11,2,0.5255,4.082836914,1.5673,2,1,4,3,4,3,2,3,3,2,3,2,3,4,4,5,3,1,4,5,4,4,3,4,4,3,3,4,3,4,2,4,3,4,4,3,4,4,3,3,3,2,0
102,12,23,Studying,Trampoline,Elvis,Classroom,11.393,14,4.483081055,1.348,place,person,object,1,5.3547,4,1,2.661,4,1,1.8126,4,1,2.0099,2,1,1.6753,2,1,1.9149,1,22,1,1.2456,4.029443359,1.6126,2,1,4,3,4,3,2,3,3,2,3,2,3,4,4,5,3,1,4,5,4,4,3,4,4,3,3,4,3,4,2,4,3,4,4,3,4,4,3,3,3,2,0
102,3,24,Music,Bike,Hugh,Lighthouse,9.0009,21,2.261767578,0.9488,person,place,object,0,8.4,3,0,8.0324,2,1,7.9072,1,0,1.16,1,1,2.0399,2,0,1.1732,1,23,2,1.2933,2.374291992,1.9185,2,1,4,3,4,3,2,3,3,2,3,2,3,4,4,5,3,1,4,5,4,4,3,4,4,3,3,4,3,4,2,4,3,4,4,3,4,4,3,3,3,2,0
103,21,1,Home,Gardengloves,Britney,Cabin,11.4092,21,3.606481481,1.0736,place,object,person,0,4.7003,1,1,2.1878,1,1,1.5671,3,1,1.29,1,1,0.9074,2,1,1.0673,2,14,1,0.5916,4.444444444,1.3893,2,2,4,4,4,4,2,4,4,2,3,4,2,4,4,5,2,1,4,2,4,4,3,4,4,2,5,5,4,4,5,5,4,5,4,4,4,4,3,4,4,4,0
103,17,2,Summer,Puppy,Sandra,Circus,7.1149,6,4.12962963,1.1206,object,person,place,1,14.1144,4,1,3.001,4,1,1.7174,1,1,1.7006,2,1,1.2909,1,1,2.2838,2,13,1,0.4354,4.643518519,2.4322,2,2,4,4,4,4,2,4,4,2,3,4,2,4,4,5,2,1,4,2,4,4,3,4,4,2,5,5,4,4,5,5,4,5,4,4,4,4,3,4,4,4,0
103,23,3,Eating,Hammock,Brad,Restaurant,10.8507,2,3.430555556,1.2154,person,object,place,1,21.7901,1,1,3.4916,3,1,1.5506,3,1,2.0672,1,0,1.8916,1,1,3.7408,2,24,1,0.3282,4.652777778,1.6481,2,2,4,4,4,4,2,4,4,2,3,4,2,4,4,5,2,1,4,2,4,4,3,4,4,2,5,5,4,4,5,5,4,5,4,4,4,4,3,4,4,4,0
103,13,4,Errands,Stopwatch,Tom,Icerink,5.4015,20,3.194444444,0.7566,place,object,person,1,5.1589,3,1,2.7416,4,1,0.6531,1,1,1.0899,1,1,1.0916,1,1,1.0675,2,15,1,0.3615,4.583333333,2.8061,2,2,4,4,4,4,2,4,4,2,3,4,2,4,4,5,2,1,4,2,4,4,3,4,4,2,5,5,4,4,5,5,4,5,4,4,4,4,3,4,4,4,0
103,20,5,Friends,Backpack,Daniel,Bridge,7.2019,23,5.115740741,0.8964,object,place,person,1,17.5001,3,0,2.5277,3,1,2.103,2,1,0.9172,2,0,1.3339,2,1,1.6083,1,7,1,0.5182,3.574074074,1.6481,2,2,4,4,4,4,2,4,4,2,3,4,2,4,4,5,2,1,4,2,4,4,3,4,4,2,5,5,4,4,5,5,4,5,4,4,4,4,3,4,4,4,0
103,19,6,Holiday,Wine,Julia,Pool,4.502,8,3.296296296,1.1051,person,object,place,1,13.3797,3,1,2.3032,4,1,1.8008,2,1,1.7912,2,1,1.0763,1,1,4.4225,2,9,1,0.9353,3.925925926,2.0134,2,2,4,4,4,4,2,4,4,2,3,4,2,4,4,5,2,1,4,2,4,4,3,4,4,2,5,5,4,4,5,5,4,5,4,4,4,4,3,4,4,4,0
103,8,7,Competition,Goggles,Princess,Savannah,6.5242,16,4.189814815,0.9886,place,object,person,1,8.141,1,0,2.4185,2,1,1.4887,4,1,0.8831,1,1,1.3184,2,1,1.4202,1,17,1,0.6086,3.555555556,1.54,2,2,4,4,4,4,2,4,4,2,3,4,2,4,4,5,2,1,4,2,4,4,3,4,4,2,5,5,4,4,5,5,4,5,4,4,4,4,3,4,4,4,0
103,9,8,Shopping,Duster,Robin,Kitchen,5.2079,19,2.564814815,0.9553,place,object,person,0,25.2002,3,1,4.3853,2,1,1.687,1,0,3.4511,1,1,0.9676,1,1,1.7509,1,5,1,0.5756,3.740740741,2.2341,2,2,4,4,4,4,2,4,4,2,3,4,2,4,4,5,2,1,4,2,4,4,3,4,4,2,5,5,4,4,5,5,4,5,4,4,4,4,3,4,4,4,0
103,22,9,Travel,Computer,George,Field,,9,3.75462963,1.1948,object,person,place,1,9.6178,4,1,1.9679,1,1,1.1525,1,1,1.6021,1,1,1.0723,2,1,5.2421,2,2,2,2.1576,4.708333333,2.4232,2,2,4,4,4,4,2,4,4,2,3,4,2,4,4,5,2,1,4,2,4,4,3,4,4,2,5,5,4,4,5,5,4,5,4,4,4,4,3,4,4,4,0
103,15,10,Celebration,Football,Meryl,Harbor,,3,5.407407407,2.1309,object,person,place,1,10.9672,1,1,3.4392,3,1,2.6748,4,1,2.0012,2,1,1.3411,1,1,1.524,1,16,2,1.3019,3.652777778,1.8716,2,2,4,4,4,4,2,4,4,2,3,4,2,4,4,5,2,1,4,2,4,4,3,4,4,2,5,5,4,4,5,5,4,5,4,4,4,4,3,4,4,4,0
103,14,11,Relaxing,Stroller,Dolly,Ski,,12,4.425925926,0.93,place,person,object,1,11.9841,1,0,0.7354,2,1,0.7693,2,1,1.8036,2,1,1.7503,2,0,1.0078,2,8,3,1.3892,4.912037037,2.2291,2,2,4,4,4,4,2,4,4,2,3,4,2,4,4,5,2,1,4,2,4,4,3,4,4,2,5,5,4,4,5,5,4,5,4,4,4,4,3,4,4,4,0
103,5,12,Party,Satchel,Judi,Bowling,,17,4.032407407,0.8636,place,person,object,1,11.6939,3,0,2.5748,2,1,1.8163,1,1,2.0888,2,1,1.0008,1,1,0.7747,2,6,2,1.2098,2.643518519,1.6639,2,2,4,4,4,4,2,4,4,2,3,4,2,4,4,5,2,1,4,2,4,4,3,4,4,2,5,5,4,4,5,5,4,5,4,4,4,4,3,4,4,4,0
103,6,13,Sightseeing,Ladder,Keanu,Beach,,15,3.833333333,1.0131,object,place,person,1,9.3061,2,1,1.4854,1,1,1.4673,3,0,1.1009,1,1,1.3905,2,1,1.0188,2,21,1,0.3711,4.643518519,1.5734,2,2,4,4,4,4,2,4,4,2,3,4,2,4,4,5,2,1,4,2,4,4,3,4,4,2,5,5,4,4,5,5,4,5,4,4,4,4,3,4,4,4,0
103,24,14,Family,Extinguisher,Anne,Basketball,,13,4.425925926,0.5102,person,place,object,0,21.3209,3,1,3.8686,2,1,1.4675,3,1,1.3682,1,1,1.8503,1,0,1.5846,1,18,1,0.3863,4.425925926,1.6243,2,2,4,4,4,4,2,4,4,2,3,4,2,4,4,5,2,1,4,2,4,4,3,4,4,2,5,5,4,4,5,5,4,5,4,4,4,4,3,4,4,4,0
103,3,15,Music,Bike,Hugh,Lighthouse,,18,3.453703704,1.3055,person,place,object,1,8.5544,4,1,3.1919,1,1,0.5247,1,1,1.368,2,0,1.3275,1,1,1.27,2,22,1,0.5681,4.023148148,1.527,2,2,4,4,4,4,2,4,4,2,3,4,2,4,4,5,2,1,4,2,4,4,3,4,4,2,5,5,4,4,5,5,4,5,4,4,4,4,3,4,4,4,0
103,12,16,Studying,Trampoline,Elvis,Classroom,,24,2.921296296,0.8723,place,person,object,1,14.4839,4,1,4.2356,4,1,0.7028,4,1,3.0737,2,1,0.9842,2,1,1.6841,1,3,1,0.5939,5.236111111,2.0499,2,2,4,4,4,4,2,4,4,2,3,4,2,4,4,5,2,1,4,2,4,4,3,4,4,2,5,5,4,4,5,5,4,5,4,4,4,4,3,4,4,4,0
103,18,17,DIY,Chair,Beyonce,Winecellar,,11,3.953703704,0.9788,person,object,place,1,10.9582,2,1,2.086,3,1,2.4502,4,1,1.2179,2,1,0.4428,1,1,1.7026,1,12,1,0.4172,5.101851852,2.4411,2,2,4,4,4,4,2,4,4,2,3,4,2,4,4,5,2,1,4,2,4,4,3,4,4,2,5,5,4,4,5,5,4,5,4,4,4,4,3,4,4,4,0
103,4,18,Exercise,Beachball,Will,Casino,,22,3.458333333,1.3438,object,person,place,1,14.8354,1,1,1.2009,2,1,1.5509,2,1,1.0583,1,1,0.8944,2,1,1.039,1,11,1,0.3188,4.398148148,1.3144,2,2,4,4,4,4,2,4,4,2,3,4,2,4,4,5,2,1,4,2,4,4,3,4,4,2,5,5,4,4,5,5,4,5,4,4,4,4,3,4,4,4,0
103,7,19,Art,Headphones,Nicole,Avenue,,4,3.546296296,1.7738,person,object,place,1,12.5917,2,1,1.4783,2,1,2.0552,3,1,1.7005,1,1,1.4871,2,1,2.1339,1,20,2,0.5939,4.967592593,2.0201,2,2,4,4,4,4,2,4,4,2,3,4,2,4,4,5,2,1,4,2,4,4,3,4,4,2,5,5,4,4,5,5,4,5,4,4,4,4,3,4,4,4,0
103,16,20,Winter,Record,David,DiningRoom,,1,4.680555556,3.3348,place,person,object,1,17.5578,2,1,3.9182,2,1,3.0854,3,1,7.3669,1,1,1.8172,1,1,1.5342,1,1,1,4.7894,4.50462963,9.0386,2,2,4,4,4,4,2,4,4,2,3,4,2,4,4,5,2,1,4,2,4,4,3,4,4,2,5,5,4,4,5,5,4,5,4,4,4,4,3,4,4,4,0
103,10,21,Work,Easel,Sean,Aquarium,,10,3.023148148,0.8733,object,place,person,1,12.4514,2,0,3.0012,3,1,1.0021,4,1,0.9674,1,1,1.15,2,1,0.9014,1,4,2,1.7216,4.416666667,1.9272,2,2,4,4,4,4,2,4,4,2,3,4,2,4,4,5,2,1,4,2,4,4,3,4,4,2,5,5,4,4,5,5,4,5,4,4,4,4,3,4,4,4,0
103,11,22,Games,Binoculars,Harrison,Lake,,7,3.472222222,0.638,object,place,person,1,15.3228,3,1,1.9546,2,1,1.9341,2,1,0.92,1,0,2.0148,2,1,1.134,2,19,1,0.4356,4.203703704,2.0435,2,2,4,4,4,4,2,4,4,2,3,4,2,4,4,5,2,1,4,2,4,4,3,4,4,2,5,5,4,4,5,5,4,5,4,4,4,4,3,4,4,4,0
103,1,23,Date,Jug,Helena,Studio,,5,2.75462963,1.5408,person,place,object,1,5.492,3,1,5.1344,3,1,0.6984,2,1,1.5506,1,1,1.4387,2,1,1.522,2,23,1,1.0014,4.175925926,2.0216,2,2,4,4,4,4,2,4,4,2,3,4,2,4,4,5,2,1,4,2,4,4,3,4,4,2,5,5,4,4,5,5,4,5,4,4,4,4,3,4,4,4,0
103,2,24,Volunteer,Flowers,Jennifer,Waterfall,,14,3.064814815,1.3385,person,place,object,1,8.8511,1,0,2.7213,1,1,2.3933,4,1,1.5371,2,0,2.1522,2,1,1.4863,1,10,1,0.4041,2.425925926,2.0098,2,2,4,4,4,4,2,4,4,2,3,4,2,4,4,5,2,1,4,2,4,4,3,4,4,2,5,5,4,4,5,5,4,5,4,4,4,4,3,4,4,4,0
104,5,1,Party,Satchel,Judi,Bowling,6.8506,1,4.248697917,6.1286,place,person,object,1,6.0914,3,0,5.5075,1,1,2.8204,1,0,3.3672,1,1,4.9824,1,1,2.2574,2,4,1,2.6178,5.86328125,5.915,1,2,4,4,4,5,2,4,4,4,4,4,3,2,2,4,5,1,4,5,5,4,4,3,4,3,3,4,3,5,2,4,2,3,3,2,4,5,1,1,2,2,0
104,1,2,Date,Jug,Helena,Studio,13.0802,9,4.203125,6.24,person,place,object,1,7.0521,3,1,1.037,3,1,1.4217,2,1,2.5168,1,1,1.4851,2,1,2.7216,2,23,2,1.1045,4.938802083,5.7958,1,2,4,4,4,5,2,4,4,4,4,4,3,2,2,4,5,1,4,5,5,4,4,3,4,3,3,4,3,5,2,4,2,3,3,2,4,5,1,1,2,2,0
104,6,3,Sightseeing,Ladder,Keanu,Beach,6.1494,21,2.790364583,1.362,object,place,person,1,8.7802,2,0,9.6808,2,0,1.2522,2,0,5.3327,1,1,2.5243,2,0,1.5185,1,9,1,0.7082,3.434895833,1.7047,1,2,4,4,4,5,2,4,4,4,4,4,3,2,2,4,5,1,4,5,5,4,4,3,4,3,3,4,3,5,2,4,2,3,3,2,4,5,1,1,2,2,0
104,10,4,Work,Easel,Sean,Aquarium,11.4756,17,2.30859375,1.2721,object,place,person,1,7.7146,2,1,5.4706,4,1,2.831,4,1,3.288,1,1,0.9442,2,1,1.2453,1,11,2,2.7577,2.653645833,1.8323,1,2,4,4,4,5,2,4,4,4,4,4,3,2,2,4,5,1,4,5,5,4,4,3,4,3,3,4,3,5,2,4,2,3,3,2,4,5,1,1,2,2,0
104,21,5,Home,Gardengloves,Britney,Cabin,11.3099,3,1.462239583,2.5769,place,object,person,1,11.3159,2,1,10.9657,1,1,6.5154,3,1,4.5021,1,0,2.0169,1,1,2.6758,2,7,1,1.0249,1.41015625,2.2999,1,2,4,4,4,5,2,4,4,4,4,4,3,2,2,4,5,1,4,5,5,4,4,3,4,3,3,4,3,5,2,4,2,3,3,2,4,5,1,1,2,2,0
104,12,6,Studying,Trampoline,Elvis,Classroom,13.6127,8,5.544270833,1.6387,place,person,object,1,4.6376,4,1,4.3667,4,1,2.1966,4,1,3.0342,2,1,1.2419,2,1,1.2696,1,19,1,0.4968,5.231770833,1.4719,1,2,4,4,4,5,2,4,4,4,4,4,3,2,2,4,5,1,4,5,5,4,4,3,4,3,3,4,3,5,2,4,2,3,3,2,4,5,1,1,2,2,0
104,7,7,Art,Headphones,Nicole,Avenue,6.9649,10,2.85546875,1.9711,person,object,place,0,6.4413,1,0,8.8156,4,1,5.6448,3,1,2.7082,1,0,1.9346,1,1,1.8515,1,2,2,3.1697,3.32421875,2.8044,1,2,4,4,4,5,2,4,4,4,4,4,3,2,2,4,5,1,4,5,5,4,4,3,4,3,3,4,3,5,2,4,2,3,3,2,4,5,1,1,2,2,0
104,8,8,Competition,Goggles,Princess,Savannah,9.4661,11,4.665364583,1.2712,place,object,person,1,7.6504,1,1,2.8802,1,1,1.6018,4,1,1.0024,1,1,1.1483,2,1,2.1577,1,18,1,0.5369,4.326822917,2.2587,1,2,4,4,4,5,2,4,4,4,4,4,3,2,2,4,5,1,4,5,5,4,4,3,4,3,3,4,3,5,2,4,2,3,3,2,4,5,1,1,2,2,0
104,4,9,Exercise,Beachball,Will,Casino,5.6199,7,4.079427083,1.1004,object,person,place,1,6.4492,1,1,1.0854,2,1,0.8188,2,1,2.4138,1,0,1.5188,1,1,1.0369,1,1,1,2.6186,4.73046875,1.3545,1,2,4,4,4,5,2,4,4,4,4,4,3,2,2,4,5,1,4,5,5,4,4,3,4,3,3,4,3,5,2,4,2,3,3,2,4,5,1,1,2,2,0
104,24,10,Family,Extinguisher,Anne,Basketball,6.4964,5,4.7109375,1.6512,person,place,object,1,6.6992,4,1,4.4856,2,1,1.9877,3,1,1.4028,1,1,0.912,1,1,1.6845,2,24,2,2.9849,5.147135417,1.5556,1,2,4,4,4,5,2,4,4,4,4,4,3,2,2,4,5,1,4,5,5,4,4,3,4,3,3,4,3,5,2,4,2,3,3,2,4,5,1,1,2,2,0
104,14,11,Relaxing,Stroller,Dolly,Ski,8.7698,4,3.649739583,2.4204,place,person,object,1,3.136,1,1,1.771,1,1,0.9871,2,1,2.1671,2,0,1.0865,1,1,1.1182,1,21,1,0.7188,5.029947917,2.9709,1,2,4,4,4,5,2,4,4,4,4,4,3,2,2,4,5,1,4,5,5,4,4,3,4,3,3,4,3,5,2,4,2,3,3,2,4,5,1,1,2,2,0
104,19,12,Holiday,Wine,Julia,Pool,8.6779,16,1.99609375,1.8873,person,object,place,1,5.3837,3,1,5.6608,4,1,8.2717,2,1,2.5823,2,1,1.0093,1,1,2.58,2,13,2,1.4395,2.42578125,1.8226,1,2,4,4,4,5,2,4,4,4,4,4,3,2,2,4,5,1,4,5,5,4,4,3,4,3,3,4,3,5,2,4,2,3,3,2,4,5,1,1,2,2,0
104,22,13,Travel,Computer,George,Field,7.3974,14,3.102864583,0.9546,object,person,place,1,6.6678,4,0,7.6188,3,1,1.0209,1,1,1.3019,1,0,3.7041,1,1,3.1403,2,6,1,4.0349,3.395833333,2.2124,1,2,4,4,4,5,2,4,4,4,4,4,3,2,2,4,5,1,4,5,5,4,4,3,4,3,3,4,3,5,2,4,2,3,3,2,4,5,1,1,2,2,0
104,23,14,Eating,Hammock,Brad,Restaurant,5.6509,19,3.994791667,1.1205,person,object,place,1,5.1831,1,1,6.4651,3,1,0.592,3,0,3.1892,2,1,0.9047,2,1,1.3526,2,5,1,0.9575,3.486979167,1.8074,1,2,4,4,4,5,2,4,4,4,4,4,3,2,2,4,5,1,4,5,5,4,4,3,4,3,3,4,3,5,2,4,2,3,3,2,4,5,1,1,2,2,0
104,20,15,Friends,Backpack,Daniel,Bridge,6.1034,23,4.645833333,2.4985,object,place,person,1,4.2971,3,1,1.6863,4,1,1.0019,2,1,1.3686,2,1,0.8843,1,1,0.9401,1,8,1,1.7203,3.786458333,1.9689,1,2,4,4,4,5,2,4,4,4,4,4,3,2,2,4,5,1,4,5,5,4,4,3,4,3,3,4,3,5,2,4,2,3,3,2,4,5,1,1,2,2,0
104,18,16,DIY,Chair,Beyonce,Winecellar,8.2169,20,4.22265625,0.9867,person,object,place,1,1.7201,2,1,1.3267,3,1,1.5585,4,1,1.4883,2,1,0.7423,1,1,0.8684,1,16,1,0.4045,4.430989583,1.5552,1,2,4,4,4,5,2,4,4,4,4,4,3,2,2,4,5,1,4,5,5,4,4,3,4,3,3,4,3,5,2,4,2,3,3,2,4,5,1,1,2,2,0
104,17,17,Summer,Puppy,Sandra,Circus,7.7697,22,4.580729167,1.0718,object,person,place,1,6.285,4,1,1.6202,4,1,1.7241,1,0,1.6345,1,1,1.7845,1,1,1.3368,2,22,2,2.8343,4.307291667,1.9728,1,2,4,4,4,5,2,4,4,4,4,4,3,2,2,4,5,1,4,5,5,4,4,3,4,3,3,4,3,5,2,4,2,3,3,2,4,5,1,1,2,2,0
104,11,18,Games,Binoculars,Harrison,Lake,7.8814,6,5.0234375,1.2645,object,place,person,1,4.5558,3,1,0.922,2,1,3.2459,2,1,1.3632,1,1,1.1348,1,1,1.4841,2,3,3,2.4399,5.186197917,1.7405,1,2,4,4,4,5,2,4,4,4,4,4,3,2,2,4,5,1,4,5,5,4,4,3,4,3,3,4,3,5,2,4,2,3,3,2,4,5,1,1,2,2,0
104,2,19,Volunteer,Flowers,Jennifer,Waterfall,7.5165,12,3.936197917,1.0432,person,place,object,1,3.6359,1,1,1.1024,3,1,2.1635,4,1,3.1015,2,1,0.8879,1,1,1.0216,1,20,1,0.747,3.936197917,2.5875,1,2,4,4,4,5,2,4,4,4,4,4,3,2,2,4,5,1,4,5,5,4,4,3,4,3,3,4,3,5,2,4,2,3,3,2,4,5,1,1,2,2,0
104,3,20,Music,Bike,Hugh,Lighthouse,5.7631,15,3.903645833,0.9257,person,place,object,1,4.7623,4,1,1.0694,1,1,1.7056,1,1,2.5852,2,1,1.1472,2,1,1.7209,2,10,2,2.8019,4.177083333,1.3222,1,2,4,4,4,5,2,4,4,4,4,4,3,2,2,4,5,1,4,5,5,4,4,3,4,3,3,4,3,5,2,4,2,3,3,2,4,5,1,1,2,2,0
104,15,21,Celebration,Football,Meryl,Harbor,9.9161,24,2.85546875,1.5948,object,person,place,1,13.3783,1,1,2.4179,3,1,1.4371,4,0,1.5272,1,1,0.8524,1,1,1.695,1,12,2,3.7838,3.565104167,1.6916,1,2,4,4,4,5,2,4,4,4,4,4,3,2,2,4,5,1,4,5,5,4,4,3,4,3,3,4,3,5,2,4,2,3,3,2,4,5,1,1,2,2,0
104,9,22,Shopping,Duster,Robin,Kitchen,8.8846,13,4.001302083,1.2431,place,object,person,1,9.1391,4,1,1.6866,2,1,1.1668,1,1,1.9845,2,1,1.1089,1,1,0.965,1,17,1,0.9019,4.411458333,1.4837,1,2,4,4,4,5,2,4,4,4,4,4,3,2,2,4,5,1,4,5,5,4,4,3,4,3,3,4,3,5,2,4,2,3,3,2,4,5,1,1,2,2,0
104,16,23,Winter,Record,David,DiningRoom,9.9504,2,4.802083333,1.1726,place,person,object,1,7.9482,2,1,3.2431,2,1,2.822,3,0,4.1394,2,1,1.4343,1,1,2.0025,1,14,1,0.7888,4.854166667,5.9154,1,2,4,4,4,5,2,4,4,4,4,4,3,2,2,4,5,1,4,5,5,4,4,3,4,3,3,4,3,5,2,4,2,3,3,2,4,5,1,1,2,2,0
104,13,24,Errands,Stopwatch,Tom,Icerink,8.7355,18,2.608072917,1.6931,place,object,person,1,4.3772,3,1,3.0197,4,1,4.3298,1,1,1.619,1,1,1.1358,1,0,2.9362,1,15,1,1.3916,2.81640625,2.2734,1,2,4,4,4,5,2,4,4,4,4,4,3,2,2,4,5,1,4,5,5,4,4,3,4,3,3,4,3,5,2,4,2,3,3,2,4,5,1,1,2,2,0
105,22,1,Travel,Computer,George,Field,18.251,7,2.763674614,2.945,object,person,place,0,68.713,3,0,0.202,3,0,0.069,3,1,4.301,1,0,2.818,1,1,3.201,2,2,2,1.334,2.763674614,3.26,3,3,4,3,3,3,3,3,2,2,1,3,3,4,4,3,2,1,5,4,5,2,2,3,3,3,3,3,3,3,4,4,3,4,3,3,2,2,4,2,3,2,0
105,4,2,Exercise,Beachball,Will,Casino,,17,4.481767181,2.06,object,person,place,1,0.535,1,1,0.402,2,1,0.451,2,1,1.101,1,0,0.953,1,1,1.101,1,10,3,0.268,3.310659187,1.894,3,3,4,3,3,3,3,3,2,2,1,3,3,4,4,3,2,1,5,4,5,2,2,3,3,3,3,3,3,3,4,4,3,4,3,3,2,2,4,2,3,2,0
105,7,3,Art,Headphones,Nicole,Avenue,18.666,24,3.142356241,1.545,person,object,place,1,2.369,2,0,0.369,1,0,0.202,2,1,0.685,1,0,0.702,1,1,0.353,1,13,3,0.302,3.135343619,1.866,3,3,4,3,3,3,3,3,2,2,1,3,3,4,4,3,2,1,5,4,5,2,2,3,3,3,3,3,3,3,4,4,3,4,3,3,2,2,4,2,3,2,0
105,15,4,Celebration,Football,Meryl,Harbor,18.951,19,3.836605891,2.01,object,person,place,0,5.901,2,0,0.752,2,0,0.501,1,0,0.802,1,1,0.551,1,1,0.635,1,12,3,0.302,4.011921459,1.228,3,3,4,3,3,3,3,3,2,2,1,3,3,4,4,3,2,1,5,4,5,2,2,3,3,3,3,3,3,3,4,4,3,4,3,3,2,2,4,2,3,2,0
105,9,5,Shopping,Duster,Robin,Kitchen,17.401,21,1.298036466,0.843,place,object,person,0,1.836,1,0,0.518,1,1,0.184,1,1,2.118,2,1,0.851,1,1,0.6,1,4,3,0.968,1.298036466,3.66,3,3,4,3,3,3,3,3,2,2,1,3,3,4,4,3,2,1,5,4,5,2,2,3,3,3,3,3,3,3,4,4,3,4,3,3,2,2,4,2,3,2,0
105,10,6,Work,Easel,Sean,Aquarium,8.234,18,3.941795231,2.011,object,place,person,1,1.451,2,0,0.251,2,0,0.253,3,1,1.036,1,0,1.435,1,1,1.451,1,23,2,0.52,4.03997195,1.326,3,3,4,3,3,3,3,3,2,2,1,3,3,4,4,3,2,1,5,4,5,2,2,3,3,3,3,3,3,3,4,4,3,4,3,3,2,2,4,2,3,2,0
105,19,7,Holiday,Wine,Julia,Pool,,11,3.584151473,0.978,person,object,place,0,2.45,2,0,1.818,1,0,6.052,3,0,1.068,1,1,1.068,1,0,1.152,1,17,3,0.668,3.584151473,3.41,3,3,4,3,3,3,3,3,2,2,1,3,3,4,4,3,2,1,5,4,5,2,2,3,3,3,3,3,3,3,4,4,3,4,3,3,2,2,4,2,3,2,0
105,13,8,Errands,Stopwatch,Tom,Icerink,5.502,1,1.045582048,3.576,place,object,person,0,11.384,2,1,47.548,4,0,24.75,3,1,9.651,1,1,2.286,1,0,1.768,1,19,3,1.286,1.031556802,6.36,3,3,4,3,3,3,3,3,2,2,1,3,3,4,4,3,2,1,5,4,5,2,2,3,3,3,3,3,3,3,4,4,3,4,3,3,2,2,4,2,3,2,0
105,17,9,Summer,Puppy,Sandra,Circus,,3,4.860448808,2.16,object,person,place,1,19.834,4,1,2.384,4,1,2.852,1,0,2.352,1,1,1.919,1,1,2.319,2,16,3,0.419,4.629032258,3.244,3,3,4,3,3,3,3,3,2,2,1,3,3,4,4,3,2,1,5,4,5,2,2,3,3,3,3,3,3,3,4,4,3,4,3,3,2,2,4,2,3,2,0
105,21,10,Home,Gardengloves,Britney,Cabin,,10,5.940392707,2.412,place,object,person,1,2.751,2,1,2.519,1,1,2.535,3,1,1.685,1,1,1.235,2,0,1.319,1,20,3,0.468,5.97545582,2.26,3,3,4,3,3,3,3,3,2,2,1,3,3,4,4,3,2,1,5,4,5,2,2,3,3,3,3,3,3,3,4,4,3,4,3,3,2,2,4,2,3,2,0
105,6,11,Sightseeing,Ladder,Keanu,Beach,,23,3.457924264,0.711,object,place,person,1,3.235,2,1,1.751,1,1,2.669,3,0,1.319,1,1,1.118,2,0,0.55,1,3,2,0.518,3.457924264,2.694,3,3,4,3,3,3,3,3,2,2,1,3,3,4,4,3,2,1,5,4,5,2,2,3,3,3,3,3,3,3,4,4,3,4,3,3,2,2,4,2,3,2,0
105,12,12,Studying,Trampoline,Elvis,Classroom,7.268,2,4.825385694,2.726,place,person,object,1,14.284,4,1,3.719,4,1,3.853,4,1,3.919,2,1,1.418,2,1,1.734,1,14,3,0.668,5.596774194,4.343,3,3,4,3,3,3,3,3,2,2,1,3,3,4,4,3,2,1,5,4,5,2,2,3,3,3,3,3,3,3,4,4,3,4,3,3,2,2,4,2,3,2,0
105,1,13,Date,Jug,Helena,Studio,,6,5.989481066,1.027,person,place,object,1,5.403,3,1,4.585,3,1,1.852,2,1,1.952,1,1,1.769,2,1,1.484,2,15,3,0.451,5.989481066,3.466,3,3,4,3,3,3,3,3,2,2,1,3,3,4,4,3,2,1,5,4,5,2,2,3,3,3,3,3,3,3,4,4,3,4,3,3,2,2,4,2,3,2,0
105,8,14,Competition,Goggles,Princess,Savannah,,15,3.254558205,1.668,place,object,person,0,4.818,2,0,0.735,2,0,1.419,2,1,1.753,1,1,0.752,2,1,1.885,1,21,3,0.335,3.507012623,1.543,3,3,4,3,3,3,3,3,2,2,1,3,3,4,4,3,2,1,5,4,5,2,2,3,3,3,3,3,3,3,4,4,3,4,3,3,2,2,4,2,3,2,0
105,20,15,Friends,Backpack,Daniel,Bridge,,5,4.460729313,1.883,object,place,person,1,11.285,3,1,3.434,4,1,3.719,2,1,2.168,2,0,1.068,2,1,2.353,1,9,3,0.369,5.631837307,2.91,3,3,4,3,3,3,3,3,2,2,1,3,3,4,4,3,2,1,5,4,5,2,2,3,3,3,3,3,3,3,4,4,3,4,3,3,2,2,4,2,3,2,0
105,24,16,Family,Extinguisher,Anne,Basketball,,20,3.514025245,0.977,person,place,object,1,6.201,4,0,2.053,1,0,1.102,2,1,1.202,1,0,1.169,2,0,0.769,1,7,3,0.737,3.514025245,1.244,3,3,4,3,3,3,3,3,2,2,1,3,3,4,4,3,2,1,5,4,5,2,2,3,3,3,3,3,3,3,4,4,3,4,3,3,2,2,4,2,3,2,0
105,16,17,Winter,Record,David,DiningRoom,,22,1.66970547,0.778,place,person,object,1,3.767,2,0,1.084,3,1,0.918,3,1,1.835,1,1,0.719,1,0,1.134,2,22,2,0.785,1.66970547,2.093,3,3,4,3,3,3,3,3,2,2,1,3,3,4,4,3,2,1,5,4,5,2,2,3,3,3,3,3,3,3,4,4,3,4,3,3,2,2,4,2,3,2,0
105,5,18,Party,Satchel,Judi,Bowling,,13,2.209677419,2.626,place,person,object,0,4.134,1,0,0.419,1,1,0.252,1,1,1.869,2,1,1.968,1,1,1.951,2,24,2,1.152,3.521037868,1.478,3,3,4,3,3,3,3,3,2,2,1,3,3,4,4,3,2,1,5,4,5,2,2,3,3,3,3,3,3,3,4,4,3,4,3,3,2,2,4,2,3,2,0
105,11,19,Games,Binoculars,Harrison,Lake,,12,3.549088359,0.777,object,place,person,0,1.452,2,1,0.485,2,1,0.269,2,1,1.001,1,1,0.769,1,0,0.918,1,6,2,1.437,3.549088359,1.61,3,3,4,3,3,3,3,3,2,2,1,3,3,4,4,3,2,1,5,4,5,2,2,3,3,3,3,3,3,3,4,4,3,4,3,3,2,2,4,2,3,2,0
105,3,20,Music,Bike,Hugh,Lighthouse,,9,4.313464236,1.944,person,place,object,0,2.451,2,1,0.602,1,0,0.486,2,0,1.151,1,0,2.218,1,0,1.218,1,18,2,1.052,4.565918654,2.459,3,3,4,3,3,3,3,3,2,2,1,3,3,4,4,3,2,1,5,4,5,2,2,3,3,3,3,3,3,3,4,4,3,4,3,3,2,2,4,2,3,2,0
105,18,21,DIY,Chair,Beyonce,Winecellar,,14,2.342917251,1.327,person,object,place,1,3.936,2,1,1.735,3,0,4.352,2,1,2.086,2,1,0.802,1,1,1.251,1,1,3,5.751,3.450911641,1.91,3,3,4,3,3,3,3,3,2,2,1,3,3,4,4,3,2,1,5,4,5,2,2,3,3,3,3,3,3,3,4,4,3,4,3,3,2,2,4,2,3,2,0
105,23,22,Eating,Hammock,Brad,Restaurant,,4,5.105890603,1.978,person,object,place,1,48.582,1,1,4.385,3,1,2.502,3,1,1.635,1,1,2.002,2,1,2.735,2,11,3,0.202,5.71598878,3.893,3,3,4,3,3,3,3,3,2,2,1,3,3,4,4,3,2,1,5,4,5,2,2,3,3,3,3,3,3,3,4,4,3,4,3,3,2,2,4,2,3,2,0
105,2,23,Volunteer,Flowers,Jennifer,Waterfall,,8,5.568723703,3.5,person,place,object,1,6.736,1,1,3.768,3,1,2.951,4,1,2.253,2,1,0.985,1,1,1.169,1,8,3,0.601,5.884291725,3.311,3,3,4,3,3,3,3,3,2,2,1,3,3,4,4,3,2,1,5,4,5,2,2,3,3,3,3,3,3,3,4,4,3,4,3,3,2,2,4,2,3,2,0
105,14,24,Relaxing,Stroller,Dolly,Ski,7.851,16,3.282608696,1.013,place,person,object,0,5.402,2,0,0.468,2,1,0.118,2,0,1.885,1,0,1.302,1,0,0.819,2,5,2,1.036,3.184431978,1.643,3,3,4,3,3,3,3,3,2,2,1,3,3,4,4,3,2,1,5,4,5,2,2,3,3,3,3,3,3,3,4,4,3,4,3,3,2,2,4,2,3,2,0
106,21,1,Home,Gardengloves,Britney,Cabin,16.3282,15,1.98420105,1.0958,place,object,person,0,16.7332,3,1,5.0235,1,1,2.4364,3,1,3.3322,1,1,1.8712,2,1,2.3327,2,10,1,0.3231,2.987973701,2.4516,3,2,4,4,3,3,4,2,4,2,4,4,2,4,4,4,4,2,3,4,2,2,3,2,2,3,5,2,2,3,2,2,2,3,5,2,4,4,2,2,2,2,0
106,1,2,Date,Jug,Helena,Studio,17.892,22,1.054936896,2.6897,person,place,object,0,8.0856,2,0,4.3662,1,1,3.1512,2,1,2.0736,1,1,2.7411,2,1,1.5321,2,21,1,0.3693,1.974846395,1.4452,3,2,4,4,3,3,4,2,4,2,4,4,2,4,4,4,4,2,3,4,2,2,3,2,2,3,5,2,2,3,2,2,2,3,5,2,4,4,2,2,2,2,0
106,19,3,Holiday,Wine,Julia,Pool,18.5383,3,2.233984714,1.5646,person,object,place,0,27.4933,2,1,9.3157,4,1,1.2685,2,1,5.4641,2,1,1.7343,1,0,5.0675,1,19,1,0.7033,2.970748901,1.3128,3,2,4,4,3,3,4,2,4,2,4,4,2,4,4,4,4,2,3,4,2,2,3,2,2,3,5,2,2,3,2,2,2,3,5,2,4,4,2,2,2,2,0
106,22,4,Travel,Computer,George,Field,18.1264,23,2.586895752,0.9447,object,person,place,1,6.7112,4,1,2.1189,1,1,2.8841,1,0,2.7417,2,0,1.5073,1,1,1.8676,2,17,1,0.3216,3.910571289,1.5444,3,2,4,4,3,3,4,2,4,2,4,4,2,4,4,4,4,2,3,4,2,2,3,2,2,3,5,2,2,3,2,2,2,3,5,2,4,4,2,2,2,2,0
106,15,5,Celebration,Football,Meryl,Harbor,18.7949,5,3.488404677,2.6296,object,person,place,1,4.1631,1,1,1.5005,3,1,6.9512,4,1,2.2476,2,1,1.6741,1,1,1.5351,1,2,1,1.0061,4.737765164,3.1116,3,2,4,4,3,3,4,2,4,2,4,4,2,4,4,4,4,2,3,4,2,2,3,2,2,3,5,2,2,3,2,2,2,3,5,2,4,4,2,2,2,2,0
106,12,6,Studying,Trampoline,Elvis,Classroom,18.1804,24,4.019624837,1.1789,place,person,object,1,3.2638,4,1,1.9002,4,1,1.0704,4,1,3.801,2,1,1.2054,2,1,1.1774,1,24,1,0.4338,5.021837701,2.6954,3,2,4,4,3,3,4,2,4,2,4,4,2,4,4,4,4,2,3,4,2,2,3,2,2,3,5,2,2,3,2,2,2,3,5,2,4,4,2,2,2,2,0
106,2,7,Volunteer,Flowers,Jennifer,Waterfall,17.4929,18,3.453169759,0.9966,person,place,object,1,1.5047,1,1,1.5875,3,1,2.3758,4,1,2.6975,2,1,1.1723,1,1,1.2024,1,18,1,0.2915,5.399630398,1.9438,3,2,4,4,3,3,4,2,4,2,4,4,2,4,4,4,4,2,3,4,2,2,3,2,2,3,5,2,2,3,2,2,2,3,5,2,4,4,2,2,2,2,0
106,4,8,Exercise,Beachball,Will,Casino,17.6257,7,3.370362006,1.8641,object,person,place,1,5.8884,1,1,4.1858,2,1,0.6574,2,0,2.0658,2,1,1.537,2,1,2.3549,1,7,1,0.2499,4.420857069,1.6638,3,2,4,4,3,3,4,2,4,2,4,4,2,4,4,4,4,2,3,4,2,2,3,2,2,3,5,2,2,3,2,2,2,3,5,2,4,4,2,2,2,2,0
106,14,9,Relaxing,Stroller,Dolly,Ski,,21,3.130558268,2.7064,place,person,object,1,3.1958,1,1,0.3602,1,1,1.2688,2,0,3.3639,1,0,1.6341,1,1,1.4188,1,6,1,0.2059,4.784307522,1.9579,3,2,4,4,3,3,4,2,4,2,4,4,2,4,4,4,4,2,3,4,2,2,3,2,2,3,5,2,2,3,2,2,2,3,5,2,4,4,2,2,2,2,0
106,17,10,Summer,Puppy,Sandra,Circus,,12,1.962931315,2.2626,object,person,place,1,4.4034,4,1,6.262,4,0,7.6333,3,1,3.4597,2,1,2.1631,1,0,4.0639,1,14,1,0.4841,2.888428413,2.2601,3,2,4,4,3,3,4,2,4,2,4,4,2,4,4,4,4,2,3,4,2,2,3,2,2,3,5,2,2,3,2,2,2,3,5,2,4,4,2,2,2,2,0
106,20,11,Friends,Backpack,Daniel,Bridge,,11,2.866098022,1.1596,object,place,person,0,35.879,2,1,1.968,4,1,0.9857,2,1,2.8844,2,0,3.1875,2,1,1.136,1,23,1,0.5334,3.421064589,1.333,3,2,4,4,3,3,4,2,4,2,4,4,2,4,4,4,4,2,3,4,2,2,3,2,2,3,5,2,2,3,2,2,2,3,5,2,4,4,2,2,2,2,0
106,11,12,Games,Binoculars,Harrison,Lake,,19,3.691082086,1.2089,object,place,person,1,5.6115,3,1,1.1569,2,1,1.6873,2,0,2.4497,2,1,1.8824,1,0,1.3803,1,11,1,0.3223,4.872021484,1.897,3,2,4,4,3,3,4,2,4,2,4,4,2,4,4,4,4,2,3,4,2,2,3,2,2,3,5,2,2,3,2,2,2,3,5,2,4,4,2,2,2,2,0
106,7,13,Art,Headphones,Nicole,Avenue,,17,1.294489543,2.4476,person,object,place,0,9.5717,3,1,9.8551,2,1,5.4779,3,0,2.9358,2,0,1.8739,1,1,1.64,1,9,1,0.3078,2.930232069,1.3235,3,2,4,4,3,3,4,2,4,2,4,4,2,4,4,4,4,2,3,4,2,2,3,2,2,3,5,2,2,3,2,2,2,3,5,2,4,4,2,2,2,2,0
106,18,14,DIY,Chair,Beyonce,Winecellar,,16,2.930232069,1.478,person,object,place,1,2.3357,2,1,1.4769,3,1,2.2679,4,1,1.354,2,0,1.9024,2,1,1.3707,1,3,1,0.2835,5.488908556,1.5274,3,2,4,4,3,3,4,2,4,2,4,4,2,4,4,4,4,2,3,4,2,2,3,2,2,3,5,2,2,3,2,2,2,3,5,2,4,4,2,2,2,2,0
106,5,15,Party,Satchel,Judi,Bowling,,20,4.017459785,0.8429,place,person,object,1,5.9357,3,1,1.3323,3,1,1.8888,1,1,3.2553,2,1,2.8513,1,1,1.9663,2,4,1,0.3855,5.316262478,1.707,3,2,4,4,3,3,4,2,4,2,4,4,2,4,4,4,4,2,3,4,2,2,3,2,2,3,5,2,2,3,2,2,2,3,5,2,4,4,2,2,2,2,0
106,3,16,Music,Bike,Hugh,Lighthouse,,6,1.691703288,1.6078,person,place,object,0,5.2337,2,0,12.7891,3,0,13.7332,3,1,3.4021,2,0,1.1835,1,1,1.7064,2,22,1,0.7002,1.68892551,1.8889,3,2,4,4,3,3,4,2,4,2,4,4,2,4,4,4,4,2,3,4,2,2,3,2,2,3,5,2,2,3,2,2,2,3,5,2,4,4,2,2,2,2,0
106,16,17,Winter,Record,David,DiningRoom,,9,3.717813789,1.0781,place,person,object,1,5.6034,2,1,0.5573,2,1,2.0202,3,1,4.595,1,0,2.5125,2,1,2.1811,1,5,1,0.3092,4.68289388,2.3606,3,2,4,4,3,3,4,2,4,2,4,4,2,4,4,4,4,2,3,4,2,2,3,2,2,3,5,2,2,3,2,2,2,3,5,2,4,4,2,2,2,2,0
106,6,18,Sightseeing,Ladder,Keanu,Beach,,10,1.810338338,1.1917,object,place,person,1,3.1721,2,1,12.1488,1,0,5.4487,1,0,4.2019,1,0,1.8726,1,1,2.507,2,16,1,0.3919,1.903583442,1.7064,3,2,4,4,3,3,4,2,4,2,4,4,2,4,4,4,4,2,3,4,2,2,3,2,2,3,5,2,2,3,2,2,2,3,5,2,4,4,2,2,2,2,0
106,24,19,Family,Extinguisher,Anne,Basketball,,1,5.361791992,2.1594,person,place,object,1,5.3544,4,1,2.9327,2,1,2.5346,3,1,2.8368,1,1,2.1646,1,0,3.3042,1,15,1,0.2393,5.644776747,3.8818,3,2,4,4,3,3,4,2,4,2,4,4,2,4,4,4,4,2,3,4,2,2,3,2,2,3,5,2,2,3,2,2,2,3,5,2,4,4,2,2,2,2,0
106,8,20,Competition,Goggles,Princess,Savannah,,8,3.846349419,2.0121,place,object,person,1,4.9009,1,1,1.8658,1,1,1.7325,4,1,2.3723,1,1,1.0101,2,1,1.35,1,1,1,3.9307,4.968159315,1.6286,3,2,4,4,3,3,4,2,4,2,4,4,2,4,4,4,4,2,3,4,2,2,3,2,2,3,5,2,2,3,2,2,2,3,5,2,4,4,2,2,2,2,0
106,13,21,Errands,Stopwatch,Tom,Icerink,,4,2.919961887,1.2879,place,object,person,1,3.0379,3,1,2.1317,4,1,3.4994,1,0,3.1852,2,0,1.9515,2,1,2.1867,2,20,1,1.6397,4.214535862,1.6628,3,2,4,4,3,3,4,2,4,2,4,4,2,4,4,4,4,2,3,4,2,2,3,2,2,3,5,2,2,3,2,2,2,3,5,2,4,4,2,2,2,2,0
106,23,22,Eating,Hammock,Brad,Restaurant,,13,2.486260308,1.1918,person,object,place,1,10.9811,1,1,1.8684,3,1,1.324,3,0,1.6215,2,1,1.2496,2,1,1.4223,2,8,1,0.3753,4.237947591,1.8078,3,2,4,4,3,3,4,2,4,2,4,4,2,4,4,4,4,2,3,4,2,2,3,2,2,3,5,2,2,3,2,2,2,3,5,2,4,4,2,2,2,2,0
106,9,23,Shopping,Duster,Robin,Kitchen,,2,4.646715291,2.6479,place,object,person,1,6.9341,4,1,2.9718,2,1,1.3713,1,1,7.7808,2,1,2.1389,1,1,2.3734,1,12,1,0.277,5.361791992,2.068,3,2,4,4,3,3,4,2,4,2,4,4,2,4,4,4,4,2,3,4,2,2,3,2,2,3,5,2,2,3,2,2,2,3,5,2,4,4,2,2,2,2,0
106,10,24,Work,Easel,Sean,Aquarium,,14,2.861880832,0.8756,object,place,person,1,2.7748,2,1,2.0363,4,1,3.5133,4,0,2.7309,2,1,1.1247,2,1,1.0225,1,13,1,0.2832,3.885705905,1.4486,3,2,4,4,3,3,4,2,4,2,4,4,2,4,4,4,4,2,3,4,2,2,3,2,2,3,5,2,2,3,2,2,2,3,5,2,4,4,2,2,2,2,0
107,17,1,Summer,Puppy,Sandra,Circus,,10,1.481481481,1.3833,object,person,place,1,19.3966,4,0,4.6401,3,1,15.9052,1,1,3.4971,2,0,4.6962,2,0,3.1659,1,12,2,5.0511,1.481481481,2.5806,1,2,4,1,4,3,1,4,4,4,2,4,4,4,4,5,2,1,5,3,4,4,4,5,3,2,4,3,4,3,5,5,4,4,4,4,4,5,4,2,4,3,1
107,3,2,Music,Bike,Hugh,Lighthouse,10.3555,8,1.125,2.2616,person,place,object,0,26.5871,3,1,13.3773,1,0,8.3456,2,1,5.3179,2,0,7.3743,1,0,7.3932,1,8,1,1.4004,1.125,4.6398,1,2,4,1,4,3,1,4,4,4,2,4,4,4,4,5,2,1,5,3,4,4,4,5,3,2,4,3,4,3,5,5,4,4,4,4,4,5,4,2,4,3,1
107,2,3,Volunteer,Flowers,Jennifer,Waterfall,9.0521,3,3.736111111,6.0931,person,place,object,0,7.7713,2,0,6.2291,1,0,6.638,3,1,3.1826,2,1,5.1016,1,1,3.0514,1,5,1,6.0631,3.782407407,4.5914,1,2,4,1,4,3,1,4,4,4,2,4,4,4,4,5,2,1,5,3,4,4,4,5,3,2,4,3,4,3,5,5,4,4,4,4,4,5,4,2,4,3,1
107,13,4,Errands,Stopwatch,Tom,Icerink,15.2288,23,1.805555556,0.9338,place,object,person,0,11.4405,4,1,4.4283,4,0,6.1174,4,1,5.001,1,1,4.2663,1,0,8.1924,1,13,1,3.9216,1.805555556,2.6151,1,2,4,1,4,3,1,4,4,4,2,4,4,4,4,5,2,1,5,3,4,4,4,5,3,2,4,3,4,3,5,5,4,4,4,4,4,5,4,2,4,3,1
107,6,5,Sightseeing,Ladder,Keanu,Beach,9.1175,21,1.912037037,2.2599,object,place,person,0,11.3474,4,1,5.2955,1,1,2.8561,3,1,5.2335,2,0,6.8264,1,1,3.4557,2,3,2,3.748,1.888888889,3.5083,1,2,4,1,4,3,1,4,4,4,2,4,4,4,4,5,2,1,5,3,4,4,4,5,3,2,4,3,4,3,5,5,4,4,4,4,4,5,4,2,4,3,1
107,14,6,Relaxing,Stroller,Dolly,Ski,11.1343,16,2.587962963,3.7396,place,person,object,1,8.0755,1,1,6.2542,1,1,3.1768,2,0,3.5916,1,0,2.6413,1,1,5.949,1,20,1,1.0783,2.097222222,3.069,1,2,4,1,4,3,1,4,4,4,2,4,4,4,4,5,2,1,5,3,4,4,4,5,3,2,4,3,4,3,5,5,4,4,4,4,4,5,4,2,4,3,1
107,24,7,Family,Extinguisher,Anne,Basketball,9.5509,5,1.726851852,3.6648,person,place,object,1,6.2471,4,1,16.5062,2,1,7.6521,3,0,6.2569,2,0,7.8702,2,1,3.8222,2,7,1,7.7799,1.875,3.544,1,2,4,1,4,3,1,4,4,4,2,4,4,4,4,5,2,1,5,3,4,4,4,5,3,2,4,3,4,3,5,5,4,4,4,4,4,5,4,2,4,3,1
107,1,8,Date,Jug,Helena,Studio,13.7035,1,2.074074074,5.2787,person,place,object,0,20.6174,4,0,11.3112,1,0,6.0455,4,1,6.2327,1,0,6.3527,1,1,2.8886,2,11,1,3.2658,1.62037037,5.7935,1,2,4,1,4,3,1,4,4,4,2,4,4,4,4,5,2,1,5,3,4,4,4,5,3,2,4,3,4,3,5,5,4,4,4,4,4,5,4,2,4,3,1
107,5,9,Party,Satchel,Judi,Bowling,14.5127,14,3.069444444,3.4472,place,person,object,1,12.2047,3,1,3.4093,3,1,5.2614,1,1,7.5229,2,1,3.0454,1,0,7.7621,1,6,1,1.6712,3.541666667,3.0888,1,2,4,1,4,3,1,4,4,4,2,4,4,4,4,5,2,1,5,3,4,4,4,5,3,2,4,3,4,3,5,5,4,4,4,4,4,5,4,2,4,3,1
107,11,10,Games,Binoculars,Harrison,Lake,12.0648,9,1.486111111,1.2655,object,place,person,1,13.3715,3,1,3.0358,2,0,5.5333,1,0,3.7288,2,1,8.3168,1,0,6.26,1,16,1,4.5069,1.481481481,3.514,1,2,4,1,4,3,1,4,4,4,2,4,4,4,4,5,2,1,5,3,4,4,4,5,3,2,4,3,4,3,5,5,4,4,4,4,4,5,4,2,4,3,1
107,12,11,Studying,Trampoline,Elvis,Classroom,14.5776,24,1.902777778,1.4407,place,person,object,1,10.1068,4,0,5.4867,1,0,8.5142,3,0,5.5702,1,1,4.8934,2,1,5.1002,1,21,1,0.5792,1.902777778,3.355,1,2,4,1,4,3,1,4,4,4,2,4,4,4,4,5,2,1,5,3,4,4,4,5,3,2,4,3,4,3,5,5,4,4,4,4,4,5,4,2,4,3,1
107,16,12,Winter,Record,David,DiningRoom,16.658,17,1.435185185,1.0391,place,person,object,0,8.4638,1,0,5.4078,4,0,6.7228,4,1,7.6384,1,1,3.8064,1,1,5.1782,1,4,1,2.6751,1.435185185,2.6029,1,2,4,1,4,3,1,4,4,4,2,4,4,4,4,5,2,1,5,3,4,4,4,5,3,2,4,3,4,3,5,5,4,4,4,4,4,5,4,2,4,3,1
107,15,13,Celebration,Football,Meryl,Harbor,14.995,18,1.768518519,1.3069,object,person,place,1,12.0271,1,0,9.1183,2,0,8.323,1,1,5.057,2,1,3.8014,1,1,4.8989,1,1,1,5.9574,1.768518519,2.4822,1,2,4,1,4,3,1,4,4,4,2,4,4,4,4,5,2,1,5,3,4,4,4,5,3,2,4,3,4,3,5,5,4,4,4,4,4,5,4,2,4,3,1
107,4,14,Exercise,Beachball,Will,Casino,17.5798,15,1.527777778,1.0412,object,person,place,1,6.684,1,1,5.2872,2,0,5.7088,4,1,4.0111,1,0,3.5752,1,1,5.6009,1,24,1,1.664,1.527777778,3.2611,1,2,4,1,4,3,1,4,4,4,2,4,4,4,4,5,2,1,5,3,4,4,4,5,3,2,4,3,4,3,5,5,4,4,4,4,4,5,4,2,4,3,1
107,22,15,Travel,Computer,George,Field,15.4441,7,3.564814815,6.2826,object,person,place,0,10.3822,2,0,12.0983,2,0,2.2856,2,1,6.5048,1,1,4.5426,2,0,4.6124,1,14,1,2.3086,2.574074074,2.6193,1,2,4,1,4,3,1,4,4,4,2,4,4,4,4,5,2,1,5,3,4,4,4,5,3,2,4,3,4,3,5,5,4,4,4,4,4,5,4,2,4,3,1
107,19,16,Holiday,Wine,Julia,Pool,12.9967,13,1.458333333,1.1145,person,object,place,0,18.2696,4,0,3.1828,1,0,12.0458,4,1,5.0421,2,1,5.8422,1,1,6.3768,2,2,1,3.4087,1.458333333,3.524,1,2,4,1,4,3,1,4,4,4,2,4,4,4,4,5,2,1,5,3,4,4,4,5,3,2,4,3,4,3,5,5,4,4,4,4,4,5,4,2,4,3,1
107,23,17,Eating,Hammock,Brad,Restaurant,13.9256,22,3.444444444,2.9613,person,object,place,1,11.2811,1,1,6.3832,3,1,3.9971,3,1,6.534,1,0,3.2726,1,0,4.029,1,23,1,1.8277,3.365740741,3.5115,1,2,4,1,4,3,1,4,4,4,2,4,4,4,4,5,2,1,5,3,4,4,4,5,3,2,4,3,4,3,5,5,4,4,4,4,4,5,4,2,4,3,1
107,10,18,Work,Easel,Sean,Aquarium,11.3021,6,2.490740741,4.8413,object,place,person,0,15.1672,4,0,5.6949,2,0,7.5383,3,1,5.1074,1,1,5.0576,2,1,3.5674,1,18,1,2.7949,1.731481481,4.0246,1,2,4,1,4,3,1,4,4,4,2,4,4,4,4,5,2,1,5,3,4,4,4,5,3,2,4,3,4,3,5,5,4,4,4,4,4,5,4,2,4,3,1
107,7,19,Art,Headphones,Nicole,Avenue,17.6228,20,2.768518519,3.3751,person,object,place,0,9.2588,1,1,9.3432,2,1,7.5641,3,1,4.7426,1,0,3.1005,1,1,7.1475,1,22,1,3.5652,2.393518519,3.1215,1,2,4,1,4,3,1,4,4,4,2,4,4,4,4,5,2,1,5,3,4,4,4,5,3,2,4,3,4,3,5,5,4,4,4,4,4,5,4,2,4,3,1
107,9,20,Shopping,Duster,Robin,Kitchen,12.8317,4,3.523148148,7.0387,place,object,person,0,5.474,2,0,6.3231,1,0,10.6539,2,1,10.648,2,1,2.9853,1,0,9.6242,2,19,1,1.5671,2.12962963,3.0725,1,2,4,1,4,3,1,4,4,4,2,4,4,4,4,5,2,1,5,3,4,4,4,5,3,2,4,3,4,3,5,5,4,4,4,4,4,5,4,2,4,3,1
107,21,21,Home,Gardengloves,Britney,Cabin,,11,1.49537037,1.0697,place,object,person,1,208.7882,2,0,1.8921,2,0,4.8891,4,1,7.5863,1,1,4.5384,2,0,4.9445,1,9,1,4.2877,1.49537037,3.1179,1,2,4,1,4,3,1,4,4,4,2,4,4,4,4,5,2,1,5,3,4,4,4,5,3,2,4,3,4,3,5,5,4,4,4,4,4,5,4,2,4,3,1
107,18,22,DIY,Chair,Beyonce,Winecellar,12.4329,19,3.314814815,2.0297,person,object,place,0,7.5397,4,1,7.1287,3,1,4.2996,4,1,6.2235,2,1,2.2689,1,1,3.1587,1,10,3,3.4651,3.180555556,2.5269,1,2,4,1,4,3,1,4,4,4,2,4,4,4,4,5,2,1,5,3,4,4,4,5,3,2,4,3,4,3,5,5,4,4,4,4,4,5,4,2,4,3,1
107,20,23,Friends,Backpack,Daniel,Bridge,11.1294,2,2.12962963,3.9752,object,place,person,0,14.4961,2,0,9.3199,3,0,12.5994,4,1,6.7452,2,1,5.087,1,0,4.3061,2,15,1,1.4672,1.861111111,4.1425,1,2,4,1,4,3,1,4,4,4,2,4,4,4,4,5,2,1,5,3,4,4,4,5,3,2,4,3,4,3,5,5,4,4,4,4,4,5,4,2,4,3,1
107,8,24,Competition,Goggles,Princess,Savannah,12.914,12,2.592592593,2.4874,place,object,person,0,19.1666,4,1,8.5116,1,0,8.3432,1,1,4.9,1,0,7.3139,1,0,4.0342,2,17,1,0.6035,2.351851852,2.8651,1,2,4,1,4,3,1,4,4,4,2,4,4,4,4,5,2,1,5,3,4,4,4,5,3,2,4,3,4,3,5,5,4,4,4,4,4,5,4,2,4,3,1
108,14,1,Relaxing,Stroller,Dolly,Ski,12.7229,9,5.958333333,1.2419,place,person,object,1,2.833699999,1,1,0.838700001,1,1,1.0731,2,1,3.021800001,2,0,1.600799999,1,1,1.281800001,1,18,1,0.351900002,5.939815097,2.1015,2,3,2,1,4,3,2,4,4,3,2,2,3,4,5,4,2,2,2,5,5,5,5,5,5,2,5,4,3,5,5,5,3,4,5,4,4,5,4,5,5,4,0
108,20,2,Friends,Backpack,Daniel,Bridge,7.0789,14,3.66203732,1.768299999,object,place,person,1,3.4285,3,1,1.914900002,4,1,1.550700001,2,1,1.9221,2,0,2.267900002,2,1,0.652700001,1,20,1,0.325700001,5.356481764,1.7275,2,3,2,1,4,3,2,4,4,3,2,2,3,4,5,4,2,2,2,5,5,5,5,5,5,2,5,4,3,5,5,5,3,4,5,4,4,5,4,5,5,4,0
108,16,3,Winter,Record,David,DiningRoom,7.179599998,5,4.486111111,3.532799999,place,person,object,1,3.8494,2,1,2.171800001,2,1,2.7849,3,1,1.435199999,1,1,5.239,1,1,1.7514,1,14,1,0.552700001,5.726851993,1.438300001,2,3,2,1,4,3,2,4,4,3,2,2,3,4,5,4,2,2,2,5,5,5,5,5,5,2,5,4,3,5,5,5,3,4,5,4,4,5,4,5,5,4,0
108,5,4,Party,Satchel,Judi,Bowling,8.2985,3,3.53703732,2.4116,place,person,object,1,3.8529,3,1,9.460299999,3,1,5.1969,1,0,3.847,1,1,1.716299999,1,1,2.132799999,2,2,1,0.5376,5.569444444,3.595,2,3,2,1,4,3,2,4,4,3,2,2,3,4,5,4,2,2,2,5,5,5,5,5,5,2,5,4,3,5,5,5,3,4,5,4,4,5,4,5,5,4,0
108,22,5,Travel,Computer,George,Field,7.861199999,22,4.935185326,1.822200001,object,person,place,1,2.0665,4,1,4.23,1,1,2.731299999,1,1,2.0065,1,0,2.2969,1,1,0.9335,2,11,1,0.3345,4.745370653,1.734799999,2,3,2,1,4,3,2,4,4,3,2,2,3,4,5,4,2,2,2,5,5,5,5,5,5,2,5,4,3,5,5,5,3,4,5,4,4,5,4,5,5,4,0
108,3,6,Music,Bike,Hugh,Lighthouse,3.603099998,23,3.680555556,1.8046,person,place,object,1,9.242700001,4,1,1.582200001,1,1,0.7279,1,1,2.0316,2,1,2.367799999,2,0,2.0205,1,10,1,0.4554,3.680555556,2.203300001,2,3,2,1,4,3,2,4,4,3,2,2,3,4,5,4,2,2,2,5,5,5,5,5,5,2,5,4,3,5,5,5,3,4,5,4,4,5,4,5,5,4,0
108,17,7,Summer,Puppy,Sandra,Circus,4.9716,15,3.439815097,1.0969,object,person,place,1,7.186199999,4,0,3.947299999,2,1,2.9225,1,0,1.2346,1,1,1.8006,1,0,1.283200001,1,17,1,0.4721,3.560185326,1.771700001,2,3,2,1,4,3,2,4,4,3,2,2,3,4,5,4,2,2,2,5,5,5,5,5,5,2,5,4,3,5,5,5,3,4,5,4,4,5,4,5,5,4,0
108,15,8,Celebration,Football,Meryl,Harbor,12.1521,20,5.254629771,1.2349,object,person,place,1,2.503700001,1,1,1.5345,3,1,1.8145,4,0,1.4361,1,1,1.398299999,1,1,2.2674,1,24,1,0.4546,5.513888889,1.368700001,2,3,2,1,4,3,2,4,4,3,2,2,3,4,5,4,2,2,2,5,5,5,5,5,5,2,5,4,3,5,5,5,3,4,5,4,4,5,4,5,5,4,0
108,11,9,Games,Binoculars,Harrison,Lake,10.0795,17,4.356481764,2.845799999,object,place,person,1,4.4761,3,1,1.108699999,2,1,0.9606,2,0,2.036,2,1,1.454699999,1,1,1.838700001,2,4,1,2.5496,5.694444444,1.452199999,2,3,2,1,4,3,2,4,4,3,2,2,3,4,5,4,2,2,2,5,5,5,5,5,5,2,5,4,3,5,5,5,3,4,5,4,4,5,4,5,5,4,0
108,24,10,Family,Extinguisher,Anne,Basketball,4.285599998,12,5.189815097,1.3009,person,place,object,1,4.171700001,4,1,1.104700001,2,1,1.4985,3,0,1.7949,2,1,1.067799999,1,0,2.1151,1,19,1,0.423,5.731481764,1.8714,2,3,2,1,4,3,2,4,4,3,2,2,3,4,5,4,2,2,2,5,5,5,5,5,5,2,5,4,3,5,5,5,3,4,5,4,4,5,4,5,5,4,0
108,21,11,Home,Gardengloves,Britney,Cabin,8.9111,7,5.328703986,1.4921,place,object,person,1,6.7805,2,1,2.106799999,1,1,1.1879,3,1,1.4165,1,1,1.3551,2,1,3.3184,2,15,1,0.488200001,5.106481764,1.4711,2,3,2,1,4,3,2,4,4,3,2,2,3,4,5,4,2,2,2,5,5,5,5,5,5,2,5,4,3,5,5,5,3,4,5,4,4,5,4,5,5,4,0
108,10,12,Work,Easel,Sean,Aquarium,4.2806,6,3.481481764,1.813099998,object,place,person,1,4.830300001,2,1,1.596200001,4,1,4.2146,4,0,1.5315,2,0,1.376599998,1,1,2.2159,1,7,3,0.991699999,4.39351866,2.329300001,2,3,2,1,4,3,2,4,4,3,2,2,3,4,5,4,2,2,2,5,5,5,5,5,5,2,5,4,3,5,5,5,3,4,5,4,4,5,4,5,5,4,0
108,2,13,Volunteer,Flowers,Jennifer,Waterfall,6.146199999,24,4.75,1.3076,person,place,object,1,3.018799999,1,1,1.3021,3,1,2.913799999,4,1,1.1171,2,0,0.9031,2,1,1.633299999,1,8,1,0.3614,4.935185326,1.605,2,3,2,1,4,3,2,4,4,3,2,2,3,4,5,4,2,2,2,5,5,5,5,5,5,2,5,4,3,5,5,5,3,4,5,4,4,5,4,5,5,4,0
108,1,14,Date,Jug,Helena,Studio,8.247300001,8,3.828703986,1.0789,person,place,object,1,4.1006,3,1,1.8344,3,1,7.211699999,2,1,2.515700001,1,1,1.774800001,2,0,0.801700001,1,1,1,2.0421,4.314815097,1.794599998,2,3,2,1,4,3,2,4,4,3,2,2,3,4,5,4,2,2,2,5,5,5,5,5,5,2,5,4,3,5,5,5,3,4,5,4,4,5,4,5,5,4,0
108,13,15,Errands,Stopwatch,Tom,Icerink,5.367799999,19,4.212963104,1.7375,place,object,person,1,3.6306,3,1,1.433299999,4,1,1.477900002,1,0,1.781400002,2,0,2.003799999,2,0,0.784200001,1,22,1,0.367700001,5.203703986,1.2855,2,3,2,1,4,3,2,4,4,3,2,2,3,4,5,4,2,2,2,5,5,5,5,5,5,2,5,4,3,5,5,5,3,4,5,4,4,5,4,5,5,4,0
108,18,16,DIY,Chair,Beyonce,Winecellar,5.5629,10,4.495370653,1.691300001,person,object,place,1,3.199,2,1,1.316799999,3,1,1.366299999,4,1,1.733,2,0,1.697300001,2,1,0.812300001,1,9,1,0.707299999,5.958333333,1.24,2,3,2,1,4,3,2,4,4,3,2,2,3,4,5,4,2,2,2,5,5,5,5,5,5,2,5,4,3,5,5,5,3,4,5,4,4,5,4,5,5,4,0
108,8,17,Competition,Goggles,Princess,Savannah,16.0864,1,3.976851993,4.183400002,place,object,person,1,10.5334,1,1,3.8525,1,1,2.0724,4,1,2.1065,1,1,1.451799999,2,0,4.2775,2,13,1,0.328200001,5.453703986,3.623799999,2,3,2,1,4,3,2,4,4,3,2,2,3,4,5,4,2,2,2,5,5,5,5,5,5,2,5,4,3,5,5,5,3,4,5,4,4,5,4,5,5,4,0
108,7,18,Art,Headphones,Nicole,Avenue,7.9961,2,1.370370441,2.026199999,person,object,place,1,18.2102,2,1,19.4722,2,1,7.4164,3,1,2.706799999,1,1,2.2325,2,1,6.183699999,1,6,1,0.4486,1.574074215,2.666799999,2,3,2,1,4,3,2,4,4,3,2,2,3,4,5,4,2,2,2,5,5,5,5,5,5,2,5,4,3,5,5,5,3,4,5,4,4,5,4,5,5,4,0
108,4,19,Exercise,Beachball,Will,Casino,10.33,13,4.245370653,2.917300001,object,person,place,1,7.7476,1,1,0.953799999,2,1,1.6155,2,1,2.2491,1,0,1.034800001,1,1,2.6841,1,12,1,0.376800001,5.379629771,1.431300001,2,3,2,1,4,3,2,4,4,3,2,2,3,4,5,4,2,2,2,5,5,5,5,5,5,2,5,4,3,5,5,5,3,4,5,4,4,5,4,5,5,4,0
108,12,20,Studying,Trampoline,Elvis,Classroom,7.297699999,16,3.898148431,1.6849,place,person,object,1,3.587800001,4,1,5.164,4,1,2.914700001,4,1,2.954299999,2,1,2.0681,2,1,0.7419,1,23,1,0.477299999,5.14351866,1.8349,2,3,2,1,4,3,2,4,4,3,2,2,3,4,5,4,2,2,2,5,5,5,5,5,5,2,5,4,3,5,5,5,3,4,5,4,4,5,4,5,5,4,0
108,23,21,Eating,Hammock,Brad,Restaurant,8.8606,21,3.365740882,2.0906,person,object,place,1,4.013900002,1,1,1.4069,3,1,0.6556,3,1,1.0536,1,1,1.283900002,2,1,3.1659,2,21,1,0.602299999,5.254629771,1.1056,2,3,2,1,4,3,2,4,4,3,2,2,3,4,5,4,2,2,2,5,5,5,5,5,5,2,5,4,3,5,5,5,3,4,5,4,4,5,4,5,5,4,0
108,19,22,Holiday,Wine,Julia,Pool,4.9005,18,5.185185326,1.290700001,person,object,place,1,4.5024,3,1,1.904800001,4,1,0.866700001,2,1,1.7339,2,1,0.7936,1,0,1.5666,1,3,1,0.4254,5.087963104,1.738200001,2,3,2,1,4,3,2,4,4,3,2,2,3,4,5,4,2,2,2,5,5,5,5,5,5,2,5,4,3,5,5,5,3,4,5,4,4,5,4,5,5,4,0
108,9,23,Shopping,Duster,Robin,Kitchen,7.8946,4,5.726851993,1.750700001,place,object,person,1,4.057099998,4,1,2.149400002,2,1,1.545800001,1,1,1.793200001,2,1,0.9275,1,1,2.874199999,1,5,2,3.015699999,5.925926208,1.951200001,2,3,2,1,4,3,2,4,4,3,2,2,3,4,5,4,2,2,2,5,5,5,5,5,5,2,5,4,3,5,5,5,3,4,5,4,4,5,4,5,5,4,0
108,6,24,Sightseeing,Ladder,Keanu,Beach,9.726200001,11,5.14351866,1.639199999,object,place,person,1,3.7644,2,1,0.992099998,1,1,1.23,3,0,1.471800001,1,1,2.911699999,2,0,2.5494,1,16,1,0.452200001,5.736111111,2.091200001,2,3,2,1,4,3,2,4,4,3,2,2,3,4,5,4,2,2,2,5,5,5,5,5,5,2,5,4,3,5,5,5,3,4,5,4,4,5,4,5,5,4,0
109,4,1,Exercise,Beachball,Will,Casino,5.863,23,4.76875,0.976,object,person,place,1,6.494,1,1,1.618,2,1,1.088,2,0,1.513,2,1,1.332,2,1,1.202,1,7,1,0.973,5.54375,1.629,4,4,3,4,2,3,2,3,3,5,2,1,5,3,3,3,4,3,5,4,3,3,3,4,3,3,3,4,3,3,3,4,3,3,3,2,2,3,3,3,3,2,0
109,5,2,Party,Satchel,Judi,Bowling,3.672,5,5.2,1.222,place,person,object,1,5.571,3,1,5.388,3,1,3.58,1,0,6.084,1,0,4.794,2,1,1.163,2,8,2,1.503,5.25,1.634,4,4,3,4,2,3,2,3,3,5,2,1,5,3,3,3,4,3,5,4,3,3,3,4,3,3,3,4,3,3,3,4,3,3,3,2,2,3,3,3,3,2,0
109,21,3,Home,Gardengloves,Britney,Cabin,15.648,6,5.09375,1.885,place,object,person,1,4.888,2,1,1.683,1,1,1.625,3,1,4.186,1,1,1.109,2,1,2.066,2,24,1,0.703,5.975,4.064,4,4,3,4,2,3,2,3,3,5,2,1,5,3,3,3,4,3,5,4,3,3,3,4,3,3,3,4,3,3,3,4,3,3,3,2,2,3,3,3,3,2,0
109,13,4,Errands,Stopwatch,Tom,Icerink,10.841,8,3.35625,2.22,place,object,person,1,5.103,3,1,4.743,4,1,2.601,1,0,3.242,2,1,3.866,1,1,2.035,2,18,2,1.006,4.6375,3.655,4,4,3,4,2,3,2,3,3,5,2,1,5,3,3,3,4,3,5,4,3,3,3,4,3,3,3,4,3,3,3,4,3,3,3,2,2,3,3,3,3,2,0
109,22,5,Travel,Computer,George,Field,14.277,9,1.16875,2.347,object,person,place,0,9.853,3,0,2.558,2,1,6.279,1,1,2.222,1,1,2.197,2,1,1.935,2,2,3,5.738,1.9375,2.147,4,4,3,4,2,3,2,3,3,5,2,1,5,3,3,3,4,3,5,4,3,3,3,4,3,3,3,4,3,3,3,4,3,3,3,2,2,3,3,3,3,2,0
109,1,6,Date,Jug,Helena,Studio,7.495,19,3.89375,1.53,person,place,object,1,9.225,3,1,2.057,3,1,1.533,2,1,1.417,1,0,2.532,1,1,1.303,2,21,2,0.922,4.46875,2.785,4,4,3,4,2,3,2,3,3,5,2,1,5,3,3,3,4,3,5,4,3,3,3,4,3,3,3,4,3,3,3,4,3,3,3,2,2,3,3,3,3,2,0
109,7,7,Art,Headphones,Nicole,Avenue,8.089,7,1.7,2.914,person,object,place,1,6.811,2,0,6.57,3,1,2.152,3,1,4.402,1,1,1.76,2,1,1.585,1,4,3,1.672,2.8375,1.991,4,4,3,4,2,3,2,3,3,5,2,1,5,3,3,3,4,3,5,4,3,3,3,4,3,3,3,4,3,3,3,4,3,3,3,2,2,3,3,3,3,2,0
109,6,8,Sightseeing,Ladder,Keanu,Beach,4.573,3,3.34375,1.309,object,place,person,1,6.27,2,1,2.105,1,1,6.456,3,0,3.154,1,1,2.386,2,1,4.227,2,13,2,1.484,3.3375,2.601,4,4,3,4,2,3,2,3,3,5,2,1,5,3,3,3,4,3,5,4,3,3,3,4,3,3,3,4,3,3,3,4,3,3,3,2,2,3,3,3,3,2,0
109,2,9,Volunteer,Flowers,Jennifer,Waterfall,10.641,14,5.5125,2.649,person,place,object,1,4.63,1,1,3.236,3,1,2.248,4,0,2.401,1,1,1.708,1,0,2.47,2,16,1,0.973,5.9875,2.728,4,4,3,4,2,3,2,3,3,5,2,1,5,3,3,3,4,3,5,4,3,3,3,4,3,3,3,4,3,3,3,4,3,3,3,2,2,3,3,3,3,2,0
109,12,10,Studying,Trampoline,Elvis,Classroom,2.344,16,1.03125,0.778,place,person,object,1,9.089,4,0,5.309,2,1,3.568,4,1,2.232,2,1,1.412,2,1,0.917,1,20,1,0.788,1.45,2.217,4,4,3,4,2,3,2,3,3,5,2,1,5,3,3,3,4,3,5,4,3,3,3,4,3,3,3,4,3,3,3,4,3,3,3,2,2,3,3,3,3,2,0
109,20,11,Friends,Backpack,Daniel,Bridge,8.891,4,5.275,2.201,object,place,person,1,5.921,3,1,3.336,4,1,3.737,2,1,2.548,2,1,2.742,1,1,2.757,1,10,1,2.835,5.23125,2.018,4,4,3,4,2,3,2,3,3,5,2,1,5,3,3,3,4,3,5,4,3,3,3,4,3,3,3,4,3,3,3,4,3,3,3,2,2,3,3,3,3,2,0
109,16,12,Winter,Record,David,DiningRoom,11.002,17,3.98125,1.148,place,person,object,1,6.353,2,1,2.005,2,1,1.649,3,0,4.039,2,1,2.601,1,1,1.583,1,17,1,0.531,5.29375,1.523,4,4,3,4,2,3,2,3,3,5,2,1,5,3,3,3,4,3,5,4,3,3,3,4,3,3,3,4,3,3,3,4,3,3,3,2,2,3,3,3,3,2,0
109,15,13,Celebration,Football,Meryl,Harbor,,18,1.05625,0.731,object,person,place,0,8.74,4,1,4.266,3,0,2.551,1,1,2.353,2,1,0.937,1,1,1.369,1,6,2,1.302,1.05625,3.399,4,4,3,4,2,3,2,3,3,5,2,1,5,3,3,3,4,3,5,4,3,3,3,4,3,3,3,4,3,3,3,4,3,3,3,2,2,3,3,3,3,2,0
109,11,14,Games,Binoculars,Harrison,Lake,4.552,21,1.4375,1.175,object,place,person,1,7.039,3,1,5.284,2,1,2.776,2,1,2.29,1,0,2.404,2,1,2.017,2,19,2,0.84,2.23125,1.814,4,4,3,4,2,3,2,3,3,5,2,1,5,3,3,3,4,3,5,4,3,3,3,4,3,3,3,4,3,3,3,4,3,3,3,2,2,3,3,3,3,2,0
109,17,15,Summer,Puppy,Sandra,Circus,16.214,13,1.25,0.609,object,person,place,1,10.101,4,1,4.205,4,0,9.973,4,1,3.684,2,0,2.584,2,1,2.599,2,14,2,1.071,1.25,1.944,4,4,3,4,2,3,2,3,3,5,2,1,5,3,3,3,4,3,5,4,3,3,3,4,3,3,3,4,3,3,3,4,3,3,3,2,2,3,3,3,3,2,0
109,19,16,Holiday,Wine,Julia,Pool,4.84,11,1.175,0.613,person,object,place,0,8.178,1,0,4.326,2,1,6.355,2,1,5.069,2,1,1.774,1,1,2.214,2,9,2,2.882,1.175,2.062,4,4,3,4,2,3,2,3,3,5,2,1,5,3,3,3,4,3,5,4,3,3,3,4,3,3,3,4,3,3,3,4,3,3,3,2,2,3,3,3,3,2,0
109,9,17,Shopping,Duster,Robin,Kitchen,12.316,12,1.4875,1.83,place,object,person,1,4.602,4,1,2.187,2,1,5.179,1,1,1.816,2,1,1.637,1,1,2.51,1,23,1,1.578,2.2625,1.744,4,4,3,4,2,3,2,3,3,5,2,1,5,3,3,3,4,3,5,4,3,3,3,4,3,3,3,4,3,3,3,4,3,3,3,2,2,3,3,3,3,2,0
109,8,18,Competition,Goggles,Princess,Savannah,6.726,24,1.13125,0.632,place,object,person,0,7.512,4,0,8.04,4,1,0.431,4,1,3.532,1,1,1.337,2,1,1.367,1,1,1,2.32,1.13125,2.831,4,4,3,4,2,3,2,3,3,5,2,1,5,3,3,3,4,3,5,4,3,3,3,4,3,3,3,4,3,3,3,4,3,3,3,2,2,3,3,3,3,2,0
109,23,19,Eating,Hammock,Brad,Restaurant,3.09,1,2.44375,3.746,person,object,place,0,15.658,3,1,8.513,3,1,5.916,3,1,7.22,1,1,2.506,2,1,1.741,2,15,2,1.286,2.21875,13.339,4,4,3,4,2,3,2,3,3,5,2,1,5,3,3,3,4,3,5,4,3,3,3,4,3,3,3,4,3,3,3,4,3,3,3,2,2,3,3,3,3,2,0
109,24,20,Family,Extinguisher,Anne,Basketball,5.079,2,3.85625,5.883,person,place,object,0,10.435,2,1,8.244,2,1,3.253,3,0,4.408,2,1,4.427,1,1,4.74,2,3,2,2.187,2.9,4.029,4,4,3,4,2,3,2,3,3,5,2,1,5,3,3,3,4,3,5,4,3,3,3,4,3,3,3,4,3,3,3,4,3,3,3,2,2,3,3,3,3,2,0
109,18,21,DIY,Chair,Beyonce,Winecellar,7.504,22,4.3125,2.55,person,object,place,1,2.513,2,1,5.605,3,1,4.005,4,1,2.215,2,1,0.866,1,1,1.145,1,12,1,1.001,5.94375,2.081,4,4,3,4,2,3,2,3,3,5,2,1,5,3,3,3,4,3,5,4,3,3,3,4,3,3,3,4,3,3,3,4,3,3,3,2,2,3,3,3,3,2,0
109,3,22,Music,Bike,Hugh,Lighthouse,9.457,20,1.05,2.394,person,place,object,1,7.586,4,0,3.098,4,1,4.505,1,1,2.184,2,1,2.181,2,0,1.801,1,22,3,1.201,1.25,2.229,4,4,3,4,2,3,2,3,3,5,2,1,5,3,3,3,4,3,5,4,3,3,3,4,3,3,3,4,3,3,3,4,3,3,3,2,2,3,3,3,3,2,0
109,10,23,Work,Easel,Sean,Aquarium,11.646,10,3.43125,1.93,object,place,person,1,6.171,2,1,4.656,4,1,3.824,4,1,1.34,1,1,0.805,2,1,1.819,1,11,2,0.892,5.75,1.533,4,4,3,4,2,3,2,3,3,5,2,1,5,3,3,3,4,3,5,4,3,3,3,4,3,3,3,4,3,3,3,4,3,3,3,2,2,3,3,3,3,2,0
109,14,24,Relaxing,Stroller,Dolly,Ski,7.65,15,4.41875,1.065,place,person,object,1,2.992,1,1,0.675,1,1,1.383,2,1,4.237,2,1,1.537,2,1,2.551,1,5,1,1.184,5.9875,3.484,4,4,3,4,2,3,2,3,3,5,2,1,5,3,3,3,4,3,5,4,3,3,3,4,3,3,3,4,3,3,3,4,3,3,3,2,2,3,3,3,3,2,0
10,4,1,Exercise,Beachball,Will,Casino,15.5634,2,1.944010417,2.0127,object,person,place,1,22.3362,1,1,9.7736,2,0,4.1861,1,0,7.8517,2,1,8.0151,2,1,4.1028,1,13,1,0.8246,1.944010417,3.7571,2,3,4,5,4,2,5,4,4,1,4,4,2,4,2,4,5,2,4,5,3,4,2,4,4,2,3,2,1,2,3,5,5,3,5,5,2,4,3,3,2,3,1
10,21,2,Home,Gardengloves,Britney,Cabin,11.1223,1,1.21484375,3.2171,place,object,person,1,23.0126,2,1,11.6436,1,0,27.5885,1,1,7.9966,1,1,3.2048,2,1,6.3587,2,2,1,1.2815,1.15625,5.0609,2,3,4,5,4,2,5,4,4,1,4,4,2,4,2,4,5,2,4,5,3,4,2,4,4,2,3,2,1,2,3,5,5,3,5,5,2,4,3,3,2,3,1
10,12,3,Studying,Trampoline,Elvis,Classroom,,6,1.247395833,1.5777,place,person,object,0,16.0203,1,0,36.8396,3,1,4.9636,4,1,6.1084,2,0,3.3917,1,1,4.0215,1,17,1,0.6431,1.279947917,1.5006,2,3,4,5,4,2,5,4,4,1,4,4,2,4,2,4,5,2,4,5,3,4,2,4,4,2,3,2,1,2,3,5,5,3,5,5,2,4,3,3,2,3,1
10,13,4,Errands,Stopwatch,Tom,Icerink,,18,1.208333333,0.9121,place,object,person,0,14.6985,2,0,5.9561,1,1,4.6163,1,0,3.2034,2,0,3.0918,2,1,2.5834,2,7,1,0.7511,1.208333333,2.2637,2,3,4,5,4,2,5,4,4,1,4,4,2,4,2,4,5,2,4,5,3,4,2,4,4,2,3,2,1,2,3,5,5,3,5,5,2,4,3,3,2,3,1
10,24,5,Family,Extinguisher,Anne,Basketball,,8,1.17578125,1.6427,person,place,object,1,25.7575,4,0,7.3021,1,0,5.9421,2,1,6.8465,1,1,6.7362,1,1,5.5302,2,9,2,4.023,1.17578125,3.423,2,3,4,5,4,2,5,4,4,1,4,4,2,4,2,4,5,2,4,5,3,4,2,4,4,2,3,2,1,2,3,5,5,3,5,5,2,4,3,3,2,3,1
10,23,6,Eating,Hammock,Brad,Restaurant,,4,4.203125,1.4693,person,object,place,1,21.7931,1,0,7.1627,2,1,21.1136,3,0,3.5946,2,0,6.5638,1,0,5.592,1,24,1,1.1078,4.216145833,2.1681,2,3,4,5,4,2,5,4,4,1,4,4,2,4,2,4,5,2,4,5,3,4,2,4,4,2,3,2,1,2,3,5,5,3,5,5,2,4,3,3,2,3,1
10,15,7,Celebration,Football,Meryl,Harbor,,24,3.44140625,1.5442,object,person,place,1,17.5738,1,1,2.9175,3,1,3.0799,4,1,2.4373,2,0,2.2167,2,1,5.0205,1,16,1,0.9005,3.194010417,2.5305,2,3,4,5,4,2,5,4,4,1,4,4,2,4,2,4,5,2,4,5,3,4,2,4,4,2,3,2,1,2,3,5,5,3,5,5,2,4,3,3,2,3,1
10,11,8,Games,Binoculars,Harrison,Lake,,15,3.91015625,1.6122,object,place,person,1,14.9408,3,1,5.2903,2,1,1.4915,2,0,3.3588,2,1,5.0058,1,1,2.4146,2,11,1,1.2966,3.473958333,2.9156,2,3,4,5,4,2,5,4,4,1,4,4,2,4,2,4,5,2,4,5,3,4,2,4,4,2,3,2,1,2,3,5,5,3,5,5,2,4,3,3,2,3,1
10,7,9,Art,Headphones,Nicole,Avenue,,17,3.994791667,1.8303,person,object,place,1,4.0202,2,1,4.5075,2,1,5.3764,3,0,2.6524,2,0,5.4397,1,1,3.2637,1,21,1,2.2315,4.53515625,3.0591,2,3,4,5,4,2,5,4,4,1,4,4,2,4,2,4,5,2,4,5,3,4,2,4,4,2,3,2,1,2,3,5,5,3,5,5,2,4,3,3,2,3,1
10,18,10,DIY,Chair,Beyonce,Winecellar,,7,4.639322917,1.0201,person,object,place,1,8.6069,2,1,2.7476,3,1,6.1268,4,1,3.9358,2,1,3.3037,1,0,6.2969,2,15,1,0.9895,4.639322917,1.669,2,3,4,5,4,2,5,4,4,1,4,4,2,4,2,4,5,2,4,5,3,4,2,4,4,2,3,2,1,2,3,5,5,3,5,5,2,4,3,3,2,3,1
10,5,11,Party,Satchel,Judi,Bowling,,5,1.21484375,1.5769,place,person,object,1,53.8419,3,0,6.1862,4,0,5.3303,4,0,7.3539,1,0,4.5433,2,0,5.9742,1,23,1,1.1153,1.397135417,2.4857,2,3,4,5,4,2,5,4,4,1,4,4,2,4,2,4,5,2,4,5,3,4,2,4,4,2,3,2,1,2,3,5,5,3,5,5,2,4,3,3,2,3,1
10,9,12,Shopping,Duster,Robin,Kitchen,,13,3.59765625,0.9921,place,object,person,1,23.3911,4,1,1.6662,2,1,5.2119,1,0,5.7643,1,1,2.6736,1,0,2.8631,2,18,1,1.2105,3.59765625,2.9812,2,3,4,5,4,2,5,4,4,1,4,4,2,4,2,4,5,2,4,5,3,4,2,4,4,2,3,2,1,2,3,5,5,3,5,5,2,4,3,3,2,3,1
10,3,13,Music,Bike,Hugh,Lighthouse,,11,4.509114583,1.7695,person,place,object,1,9.5319,4,1,4.4656,1,1,3.2863,1,1,3.0376,2,1,4.348,2,0,2.8677,1,5,1,2.2774,4.138020833,2.2719,2,3,4,5,4,2,5,4,4,1,4,4,2,4,2,4,5,2,4,5,3,4,2,4,4,2,3,2,1,2,3,5,5,3,5,5,2,4,3,3,2,3,1
10,17,14,Summer,Puppy,Sandra,Circus,,21,4.73046875,1.6279,object,person,place,1,7.0047,4,1,4.4187,4,1,2.1442,1,0,3.7067,1,1,3.1847,1,0,4.5366,1,14,1,1.3612,4.203125,2.0814,2,3,4,5,4,2,5,4,4,1,4,4,2,4,2,4,5,2,4,5,3,4,2,4,4,2,3,2,1,2,3,5,5,3,5,5,2,4,3,3,2,3,1
10,14,15,Relaxing,Stroller,Dolly,Ski,,22,4.606770833,0.9253,place,person,object,1,9.5375,1,1,1.6166,1,1,3.6,2,1,5.1224,2,0,3.0001,1,1,2.931,1,8,1,0.8556,4.606770833,2.2556,2,3,4,5,4,2,5,4,4,1,4,4,2,4,2,4,5,2,4,5,3,4,2,4,4,2,3,2,1,2,3,5,5,3,5,5,2,4,3,3,2,3,1
10,2,16,Volunteer,Flowers,Jennifer,Waterfall,,14,4.834635417,3.2186,person,place,object,1,6.4121,1,1,5.043,3,1,1.8425,4,0,2.8162,1,0,4.6935,2,1,3.3974,1,19,1,0.9991,4.522135417,3.7511,2,3,4,5,4,2,5,4,4,1,4,4,2,4,2,4,5,2,4,5,3,4,2,4,4,2,3,2,1,2,3,5,5,3,5,5,2,4,3,3,2,3,1
10,19,17,Holiday,Wine,Julia,Pool,,10,4.723958333,0.8893,person,object,place,1,15.0471,3,1,5.2304,4,1,5.4129,2,1,11.6465,2,1,9.7619,1,0,3.9828,1,1,1,8.6254,4.723958333,2.2049,2,3,4,5,4,2,5,4,4,1,4,4,2,4,2,4,5,2,4,5,3,4,2,4,4,2,3,2,1,2,3,5,5,3,5,5,2,4,3,3,2,3,1
10,6,18,Sightseeing,Ladder,Keanu,Beach,,9,4.932291667,1.4368,object,place,person,1,9.2575,2,0,5.3032,2,1,4.8737,3,0,5.0276,1,0,3.6997,1,0,4.1692,1,10,2,4.4716,4.359375,2.1692,2,3,4,5,4,2,5,4,4,1,4,4,2,4,2,4,5,2,4,5,3,4,2,4,4,2,3,2,1,2,3,5,5,3,5,5,2,4,3,3,2,3,1
10,8,19,Competition,Goggles,Princess,Savannah,,23,5.08203125,1.2428,place,object,person,1,8.5506,1,1,2.1959,1,1,4.2748,4,1,2.4306,1,1,4.4206,2,0,2.0859,2,20,1,1.0092,5.075520833,2.4334,2,3,4,5,4,2,5,4,4,1,4,4,2,4,2,4,5,2,4,5,3,4,2,4,4,2,3,2,1,2,3,5,5,3,5,5,2,4,3,3,2,3,1
10,22,20,Travel,Computer,George,Field,,20,3.278645833,1.25,object,person,place,0,12.5836,1,1,2.1448,1,1,1.8837,1,1,2.6265,1,1,2.2257,2,0,3.3597,1,4,1,0.9976,3.278645833,2.481,2,3,4,5,4,2,5,4,4,1,4,4,2,4,2,4,5,2,4,5,3,4,2,4,4,2,3,2,1,2,3,5,5,3,5,5,2,4,3,3,2,3,1
10,10,21,Work,Easel,Sean,Aquarium,,3,1.5078125,1.9101,object,place,person,1,27.2355,2,0,8.9339,1,1,29.1385,4,0,7.4805,2,0,4.9377,1,1,4.6614,1,6,1,0.6899,1.9375,1.5099,2,3,4,5,4,2,5,4,4,1,4,4,2,4,2,4,5,2,4,5,3,4,2,4,4,2,3,2,1,2,3,5,5,3,5,5,2,4,3,3,2,3,1
10,20,22,Friends,Backpack,Daniel,Bridge,,16,3.350260417,2.5987,object,place,person,1,11.3528,3,1,6.2741,4,1,3.7671,2,1,4.558,2,1,8.3596,1,1,2.7125,1,12,1,1.1077,3.734375,2.4064,2,3,4,5,4,2,5,4,4,1,4,4,2,4,2,4,5,2,4,5,3,4,2,4,4,2,3,2,1,2,3,5,5,3,5,5,2,4,3,3,2,3,1
10,1,23,Date,Jug,Helena,Studio,,12,4.84765625,1.5592,person,place,object,1,14.7585,3,1,7.5734,3,1,6.0095,2,0,2.6451,2,0,4.1739,1,0,7.4466,1,22,1,1.2171,4.509114583,1.6097,2,3,4,5,4,2,5,4,4,1,4,4,2,4,2,4,5,2,4,5,3,4,2,4,4,2,3,2,1,2,3,5,5,3,5,5,2,4,3,3,2,3,1
10,16,24,Winter,Record,David,DiningRoom,,19,1.208333333,0.9279,place,person,object,0,10.0918,1,1,3.6567,2,0,3.1647,2,0,5.6129,2,1,2.6548,1,1,5.982,1,3,1,1.3586,1.208333333,2.0516,2,3,4,5,4,2,5,4,4,1,4,4,2,4,2,4,5,2,4,5,3,4,2,4,4,2,3,2,1,2,3,5,5,3,5,5,2,4,3,3,2,3,1
110,12,1,Studying,Trampoline,Elvis,Classroom,17.16,6,4.405555556,2.736,place,person,object,1,2.722,4,1,1.435,4,1,4.135,4,1,3.158,2,1,1.945,2,1,1.594,1,20,1,0.886,5.738888889,1.418,2,3,2,3,3,5,1,2,4,2,4,5,5,5,2,2,4,4,2,4,3,3,5,5,4,2,3,2,4,4,4,5,3,4,4,4,5,5,4,4,5,4,0
110,23,2,Eating,Hammock,Brad,Restaurant,17.805,21,1.133333333,0.435,person,object,place,0,4.953,4,0,0.885,2,0,1.053,1,1,1.075,1,1,1.158,2,0,1.768,1,18,1,0.176,1.133333333,0.856,2,3,2,3,3,5,1,2,4,2,4,5,5,5,2,2,4,4,2,4,3,3,5,5,4,2,3,2,4,4,4,5,3,4,4,4,5,5,4,4,5,4,0
110,1,3,Date,Jug,Helena,Studio,,17,4.5,1.086,person,place,object,0,11.686,4,1,2.829,3,1,1.445,2,1,5.719,1,0,0.824,1,1,1.801,2,22,1,0.34,4.5,1.686,2,3,2,3,3,5,1,2,4,2,4,5,5,5,2,2,4,4,2,4,3,3,5,5,4,2,3,2,4,4,4,5,3,4,4,4,5,5,4,4,5,4,0
110,8,4,Competition,Goggles,Princess,Savannah,18.67,10,1.027777778,0.453,place,object,person,0,5.957,3,1,1.634,1,0,1.188,2,1,3.128,1,0,0.696,1,0,1.819,2,13,1,0.351,1.027777778,3.624,2,3,2,3,3,5,1,2,4,2,4,5,5,5,2,2,4,4,2,4,3,3,5,5,4,2,3,2,4,4,4,5,3,4,4,4,5,5,4,4,5,4,0
110,16,5,Winter,Record,David,DiningRoom,16.626,7,2.283333333,0.887,place,person,object,0,4.068,1,1,1.059,2,1,4.625,3,0,1.958,2,1,0.956,1,0,0.819,2,21,1,0.859,2.277777778,1.521,2,3,2,3,3,5,1,2,4,2,4,5,5,5,2,2,4,4,2,4,3,3,5,5,4,2,3,2,4,4,4,5,3,4,4,4,5,5,4,4,5,4,0
110,6,6,Sightseeing,Ladder,Keanu,Beach,,16,1.483333333,1.572,object,place,person,1,6.301,2,1,2.574,1,0,1.434,2,1,1.322,2,0,1.672,1,0,1.997,1,2,1,2.19,2.25,1.369,2,3,2,3,3,5,1,2,4,2,4,5,5,5,2,2,4,4,2,4,3,3,5,5,4,2,3,2,4,4,4,5,3,4,4,4,5,5,4,4,5,4,0
110,3,7,Music,Bike,Hugh,Lighthouse,11.619,13,1.011111111,0.653,person,place,object,0,4.273,2,0,3.42,2,1,1.656,1,1,1.239,2,1,0.79,2,1,3.223,2,7,1,2.068,1.005555556,2.137,2,3,2,3,3,5,1,2,4,2,4,5,5,5,2,2,4,4,2,4,3,3,5,5,4,2,3,2,4,4,4,5,3,4,4,4,5,5,4,4,5,4,0
110,9,8,Shopping,Duster,Robin,Kitchen,,2,1.588888889,1.487,place,object,person,1,10.79,4,1,4.534,2,0,2.397,3,1,4.496,2,0,0.943,2,1,4.302,1,1,1,3.638,2.811111111,1.786,2,3,2,3,3,5,1,2,4,2,4,5,5,5,2,2,4,4,2,4,3,3,5,5,4,2,3,2,4,4,4,5,3,4,4,4,5,5,4,4,5,4,0
110,5,9,Party,Satchel,Judi,Bowling,,11,2.488888889,0.585,place,person,object,1,5.161,3,1,2.922,3,0,4.159,4,1,0.601,2,1,1.398,1,0,0.944,1,4,1,0.739,2.411111111,1.336,2,3,2,3,3,5,1,2,4,2,4,5,5,5,2,2,4,4,2,4,3,3,5,5,4,2,3,2,4,4,4,5,3,4,4,4,5,5,4,4,5,4,0
110,19,10,Holiday,Wine,Julia,Pool,,4,1.794444444,2.288,person,object,place,1,7.623,3,1,4.078,4,0,2.563,1,1,1.289,2,1,1.101,1,1,8.986,2,14,1,0.267,1.755555556,1.069,2,3,2,3,3,5,1,2,4,2,4,5,5,5,2,2,4,4,2,4,3,3,5,5,4,2,3,2,4,4,4,5,3,4,4,4,5,5,4,4,5,4,0
110,20,11,Friends,Backpack,Daniel,Bridge,15.991,23,1.116666667,1.536,object,place,person,0,0.912,1,0,0.555,1,0,0.035,1,1,0.97,2,0,2.473,2,1,1.324,1,9,1,0.23,1.105555556,1.887,2,3,2,3,3,5,1,2,4,2,4,5,5,5,2,2,4,4,2,4,3,3,5,5,4,2,3,2,4,4,4,5,3,4,4,4,5,5,4,4,5,4,0
110,13,12,Errands,Stopwatch,Tom,Icerink,,3,1.755555556,1.254,place,object,person,0,2.71,1,1,5.256,4,1,4.493,1,0,2.541,2,0,0.895,2,0,1.843,1,11,1,0.452,1.755555556,1.969,2,3,2,3,3,5,1,2,4,2,4,5,5,5,2,2,4,4,2,4,3,3,5,5,4,2,3,2,4,4,4,5,3,4,4,4,5,5,4,4,5,4,0
110,17,13,Summer,Puppy,Sandra,Circus,,8,3.416666667,0.606,object,person,place,0,5.375,2,0,3.304,1,0,4.21,3,0,4.686,1,1,2.67,1,1,1.357,2,3,1,0.489,3.416666667,1.368,2,3,2,3,3,5,1,2,4,2,4,5,5,5,2,2,4,4,2,4,3,3,5,5,4,2,3,2,4,4,4,5,3,4,4,4,5,5,4,4,5,4,0
110,2,14,Volunteer,Flowers,Jennifer,Waterfall,,1,1.0,3.12,person,place,object,0,7.856,2,1,9.198,3,1,5.19,4,1,3.421,2,0,5.236,2,1,2.49,1,16,1,0.191,1.0,10.72,2,3,2,3,3,5,1,2,4,2,4,5,5,5,2,2,4,4,2,4,3,3,5,5,4,2,3,2,4,4,4,5,3,4,4,4,5,5,4,4,5,4,0
110,24,15,Family,Extinguisher,Anne,Basketball,,12,3.0,0.771,person,place,object,0,3.501,2,1,0.829,2,0,1.856,1,1,1.875,1,1,0.835,1,1,0.923,2,23,1,0.256,2.488888889,0.868,2,3,2,3,3,5,1,2,4,2,4,5,5,5,2,2,4,4,2,4,3,3,5,5,4,2,3,2,4,4,4,5,3,4,4,4,5,5,4,4,5,4,0
110,22,16,Travel,Computer,George,Field,,20,1.016666667,0.336,object,person,place,0,3.635,1,1,0.474,1,0,0.09,2,1,0.835,1,0,3.423,1,1,2.19,2,8,1,0.311,1.016666667,1.855,2,3,2,3,3,5,1,2,4,2,4,5,5,5,2,2,4,4,2,4,3,3,5,5,4,2,3,2,4,4,4,5,3,4,4,4,5,5,4,4,5,4,0
110,10,17,Work,Easel,Sean,Aquarium,15.197,18,5.844444444,1.021,object,place,person,1,2.561,2,1,5.031,4,1,3.789,4,1,1.223,1,1,2.51,2,1,2.876,1,19,3,3.533,5.844444444,1.504,2,3,2,3,3,5,1,2,4,2,4,5,5,5,2,2,4,4,2,4,3,3,5,5,4,2,3,2,4,4,4,5,3,4,4,4,5,5,4,4,5,4,0
110,7,18,Art,Headphones,Nicole,Avenue,14.992,14,1.077777778,0.903,person,object,place,1,0.644,2,1,0.022,2,1,4.802,3,1,1.234,1,0,0.752,1,0,1.203,2,17,1,0.333,1.088888889,1.289,2,3,2,3,3,5,1,2,4,2,4,5,5,5,2,2,4,4,2,4,3,3,5,5,4,2,3,2,4,4,4,5,3,4,4,4,5,5,4,4,5,4,0
110,11,19,Games,Binoculars,Harrison,Lake,12.458,9,2.827777778,1.02,object,place,person,1,10.605,3,0,2.264,3,1,3.257,2,0,1.058,2,1,1.221,1,1,1.075,2,10,2,3.512,2.833333333,2.803,2,3,2,3,3,5,1,2,4,2,4,5,5,5,2,2,4,4,2,4,3,3,5,5,4,2,3,2,4,4,4,5,3,4,4,4,5,5,4,4,5,4,0
110,14,20,Relaxing,Stroller,Dolly,Ski,,5,1.772222222,1.7,place,person,object,0,15.652,2,1,3.902,1,0,1.529,1,0,1.745,1,1,1.758,2,1,1.834,1,6,1,0.628,2.372222222,1.303,2,3,2,3,3,5,1,2,4,2,4,5,5,5,2,2,4,4,2,4,3,3,5,5,4,2,3,2,4,4,4,5,3,4,4,4,5,5,4,4,5,4,0
110,4,21,Exercise,Beachball,Will,Casino,15.812,22,2.45,0.369,object,person,place,1,5.424,1,0,4.301,3,1,1.597,2,1,0.69,1,0,0.957,1,1,0.934,1,5,1,0.267,2.45,1.389,2,3,2,3,3,5,1,2,4,2,4,5,5,5,2,2,4,4,2,4,3,3,5,5,4,2,3,2,4,4,4,5,3,4,4,4,5,5,4,4,5,4,0
110,15,22,Celebration,Football,Meryl,Harbor,18.419,15,1.077777778,1.02,object,person,place,0,1.669,2,0,0.807,1,0,0.452,1,0,0.573,1,1,0.638,1,1,0.827,1,24,1,0.058,1.077777778,1.386,2,3,2,3,3,5,1,2,4,2,4,5,5,5,2,2,4,4,2,4,3,3,5,5,4,2,3,2,4,4,4,5,3,4,4,4,5,5,4,4,5,4,0
110,18,23,DIY,Chair,Beyonce,Winecellar,,24,2.222222222,0.468,person,object,place,1,4.327,2,1,2.172,3,0,1.856,1,1,2.457,2,0,1.044,2,0,2.29,2,15,1,0.134,2.244444444,1.503,2,3,2,3,3,5,1,2,4,2,4,5,5,5,2,2,4,4,2,4,3,3,5,5,4,2,3,2,4,4,4,5,3,4,4,4,5,5,4,4,5,4,0
110,21,24,Home,Gardengloves,Britney,Cabin,8.035,19,2.355555556,0.32,place,object,person,1,9.494,2,0,2.469,3,0,1.975,1,0,1.886,2,1,1.226,2,1,1.856,2,12,1,0.285,2.355555556,1.585,2,3,2,3,3,5,1,2,4,2,4,5,5,5,2,2,4,4,2,4,3,3,5,5,4,2,3,2,4,4,4,5,3,4,4,4,5,5,4,4,5,4,0
111,13,1,Errands,Stopwatch,Tom,Icerink,12.4,20,5.141061453,1.628,place,object,person,1,2.284,3,1,1.651,4,1,1.351,1,1,1.317,1,1,2.633,1,0,1.417,1,16,1,1.668,5.38547486,1.893,4,4,2,1,2,2,2,1,2,5,3,2,5,2,3,3,4,1,4,3,2,2,2,1,1,5,3,4,3,4,4,4,3,3,5,4,5,4,3,4,3,2,0
111,22,2,Travel,Computer,George,Field,8.336,4,2.194134078,1.343,object,person,place,0,10.567,2,0,4.284,4,0,2.034,3,1,2.618,1,0,5.841,1,1,5.266,2,2,1,6.518,3.611731844,2.327,4,4,2,1,2,2,2,1,2,5,3,2,5,2,3,3,4,1,4,3,2,2,2,1,1,5,3,4,3,4,4,4,3,3,5,4,5,4,3,4,3,2,0
111,18,3,DIY,Chair,Beyonce,Winecellar,9.168,22,5.029329609,0.744,person,object,place,1,4.851,2,1,1.767,3,1,2.687,4,1,2.082,2,0,2.635,2,1,1.0,1,15,1,0.7,5.490223464,1.427,4,4,2,1,2,2,2,1,2,5,3,2,5,2,3,3,4,1,4,3,2,2,2,1,1,5,3,4,3,4,4,4,3,3,5,4,5,4,3,4,3,2,0
111,3,4,Music,Bike,Hugh,Lighthouse,6.069,23,1.00698324,2.177,person,place,object,0,4.255,1,0,4.866,4,1,6.167,1,1,2.202,2,1,1.868,2,1,1.167,2,19,1,0.288,1.733240223,1.577,4,4,2,1,2,2,2,1,2,5,3,2,5,2,3,3,4,1,4,3,2,2,2,1,1,5,3,4,3,4,4,4,3,3,5,4,5,4,3,4,3,2,0
111,4,5,Exercise,Beachball,Will,Casino,3.903,5,3.751396648,2.094,object,person,place,1,4.25,1,1,0.92,2,1,1.417,2,0,3.318,2,1,2.501,2,1,3.1,1,8,1,0.617,4.687150838,1.794,4,4,2,1,2,2,2,1,2,5,3,2,5,2,3,3,4,1,4,3,2,2,2,1,1,5,3,4,3,4,4,4,3,3,5,4,5,4,3,4,3,2,0
111,10,6,Work,Easel,Sean,Aquarium,5.183,2,1.691340782,1.978,object,place,person,1,10.15,2,1,6.667,4,1,2.368,4,0,2.0,2,1,2.087,2,1,1.783,1,17,3,1.834,2.87849162,1.827,4,4,2,1,2,2,2,1,2,5,3,2,5,2,3,3,4,1,4,3,2,2,2,1,1,5,3,4,3,4,4,4,3,3,5,4,5,4,3,4,3,2,0
111,9,7,Shopping,Duster,Robin,Kitchen,5.367,19,2.145251397,0.543,place,object,person,1,12.134,4,1,7.435,2,1,1.701,1,1,3.35,2,1,1.529,1,1,1.184,1,10,1,0.716,3.409217877,1.905,4,4,2,1,2,2,2,1,2,5,3,2,5,2,3,3,4,1,4,3,2,2,2,1,1,5,3,4,3,4,4,4,3,3,5,4,5,4,3,4,3,2,0
111,24,8,Family,Extinguisher,Anne,Basketball,8.533,8,1.020949721,0.822,person,place,object,0,11.118,1,0,6.237,4,0,3.452,1,1,2.95,1,1,2.3,1,1,1.333,2,21,1,0.4,1.251396648,1.727,4,4,2,1,2,2,2,1,2,5,3,2,5,2,3,3,4,1,4,3,2,2,2,1,1,5,3,4,3,4,4,4,3,3,5,4,5,4,3,4,3,2,0
111,19,9,Holiday,Wine,Julia,Pool,3.016,17,1.446927374,0.878,person,object,place,0,3.503,4,0,3.221,1,1,6.333,2,1,1.967,2,1,1.467,1,1,4.133,2,18,1,2.584,3.297486034,1.11,4,4,2,1,2,2,2,1,2,5,3,2,5,2,3,3,4,1,4,3,2,2,2,1,1,5,3,4,3,4,4,4,3,3,5,4,5,4,3,4,3,2,0
111,11,10,Games,Binoculars,Harrison,Lake,7.634,14,4.980446927,1.743,object,place,person,1,5.433,3,1,1.0,2,1,2.852,2,1,2.418,1,1,1.95,1,1,1.734,2,20,1,1.935,5.69273743,2.56,4,4,2,1,2,2,2,1,2,5,3,2,5,2,3,3,4,1,4,3,2,2,2,1,1,5,3,4,3,4,4,4,3,3,5,4,5,4,3,4,3,2,0
111,15,11,Celebration,Football,Meryl,Harbor,4.316,16,3.297486034,1.577,object,person,place,1,3.168,1,1,4.318,3,1,1.552,4,1,1.284,2,1,1.184,1,1,1.633,1,9,1,0.501,4.42877095,1.594,4,4,2,1,2,2,2,1,2,5,3,2,5,2,3,3,4,1,4,3,2,2,2,1,1,5,3,4,3,4,4,4,3,3,5,4,5,4,3,4,3,2,0
111,23,12,Eating,Hammock,Brad,Restaurant,4.734,21,2.229050279,0.646,person,object,place,0,6.386,4,0,4.2,4,1,6.951,3,1,1.8,1,0,0.852,1,1,1.433,2,24,1,0.549,2.892458101,2.176,4,4,2,1,2,2,2,1,2,5,3,2,5,2,3,3,4,1,4,3,2,2,2,1,1,5,3,4,3,4,4,4,3,3,5,4,5,4,3,4,3,2,0
111,14,13,Relaxing,Stroller,Dolly,Ski,4.402,11,5.581005587,0.693,place,person,object,1,3.718,1,1,1.077,1,1,1.334,2,1,2.167,2,1,2.017,2,1,1.803,1,14,1,0.623,5.581005587,1.444,4,4,2,1,2,2,2,1,2,5,3,2,5,2,3,3,4,1,4,3,2,2,2,1,1,5,3,4,3,4,4,4,3,3,5,4,5,4,3,4,3,2,0
111,8,14,Competition,Goggles,Princess,Savannah,3.538,10,5.217877095,1.243,place,object,person,1,8.902,1,1,2.467,1,1,1.401,4,1,2.6,1,1,1.184,2,1,0.971,1,1,1,4.867,4.73603352,1.578,4,4,2,1,2,2,2,1,2,5,3,2,5,2,3,3,4,1,4,3,2,2,2,1,1,5,3,4,3,4,4,4,3,3,5,4,5,4,3,4,3,2,0
111,12,15,Studying,Trampoline,Elvis,Classroom,4.202,12,4.296089385,1.277,place,person,object,1,7.034,4,1,2.551,4,1,1.766,4,1,3.219,2,1,3.287,2,1,0.665,1,5,1,0.484,4.952513966,2.293,4,4,2,1,2,2,2,1,2,5,3,2,5,2,3,3,4,1,4,3,2,2,2,1,1,5,3,4,3,4,4,4,3,3,5,4,5,4,3,4,3,2,0
111,5,16,Party,Satchel,Judi,Bowling,,13,5.238826816,0.845,place,person,object,1,3.149,3,1,2.667,3,1,0.8,1,0,2.236,1,1,1.654,1,1,1.501,2,3,1,0.699,5.182960894,2.295,4,4,2,1,2,2,2,1,2,5,3,2,5,2,3,3,4,1,4,3,2,2,2,1,1,5,3,4,3,4,4,4,3,3,5,4,5,4,3,4,3,2,0
111,21,17,Home,Gardengloves,Britney,Cabin,3.267,3,1.30726257,0.943,place,object,person,1,9.067,2,1,12.203,1,1,4.019,3,1,3.783,1,1,1.55,2,0,3.549,1,11,1,0.818,1.879888268,3.244,4,4,2,1,2,2,2,1,2,5,3,2,5,2,3,3,4,1,4,3,2,2,2,1,1,5,3,4,3,4,4,4,3,3,5,4,5,4,3,4,3,2,0
111,17,18,Summer,Puppy,Sandra,Circus,6.603,24,3.437150838,1.094,object,person,place,1,7.15,4,0,7.151,3,1,1.178,1,1,3.016,2,1,1.65,1,0,0.817,1,12,1,0.404,4.43575419,1.728,4,4,2,1,2,2,2,1,2,5,3,2,5,2,3,3,4,1,4,3,2,2,2,1,1,5,3,4,3,4,4,4,3,3,5,4,5,4,3,4,3,2,0
111,6,19,Sightseeing,Ladder,Keanu,Beach,3.8,15,1.293296089,1.578,object,place,person,1,10.1,2,1,7.768,1,1,2.6,3,1,1.62,2,1,1.886,2,1,1.384,2,23,1,0.405,2.57122905,1.509,4,4,2,1,2,2,2,1,2,5,3,2,5,2,3,3,4,1,4,3,2,2,2,1,1,5,3,4,3,4,4,4,3,3,5,4,5,4,3,4,3,2,0
111,1,20,Date,Jug,Helena,Studio,7.134,18,4.12150838,1.179,person,place,object,1,3.7,3,1,1.185,3,1,1.134,2,1,1.516,1,1,2.916,2,1,1.451,2,6,1,0.37,5.05027933,2.161,4,4,2,1,2,2,2,1,2,5,3,2,5,2,3,3,4,1,4,3,2,2,2,1,1,5,3,4,3,4,4,4,3,3,5,4,5,4,3,4,3,2,0
111,2,21,Volunteer,Flowers,Jennifer,Waterfall,2.901,9,4.777932961,1.743,person,place,object,1,1.416,1,1,1.484,3,1,3.233,4,1,3.237,2,1,1.051,1,1,1.069,1,7,1,0.568,5.092178771,2.428,4,4,2,1,2,2,2,1,2,5,3,2,5,2,3,3,4,1,4,3,2,2,2,1,1,5,3,4,3,4,4,4,3,3,5,4,5,4,3,4,3,2,0
111,16,22,Winter,Record,David,DiningRoom,3.654,1,4.533519553,5.576,place,person,object,1,4.451,2,1,1.8,2,1,2.134,3,1,2.599,1,1,5.053,1,1,1.166,1,4,1,0.484,4.882681564,2.109,4,4,2,1,2,2,2,1,2,5,3,2,5,2,3,3,4,1,4,3,2,2,2,1,1,5,3,4,3,4,4,4,3,3,5,4,5,4,3,4,3,2,0
111,20,23,Friends,Backpack,Daniel,Bridge,4.1,6,3.48603352,1.027,object,place,person,1,2.667,3,1,2.119,4,1,1.167,2,0,3.535,1,1,0.985,1,1,1.2,1,22,1,3.252,4.917597765,1.443,4,4,2,1,2,2,2,1,2,5,3,2,5,2,3,3,4,1,4,3,2,2,2,1,1,5,3,4,3,4,4,4,3,3,5,4,5,4,3,4,3,2,0
111,7,24,Art,Headphones,Nicole,Avenue,4.083,7,2.389664804,1.827,person,object,place,1,5.618,2,1,2.251,2,1,1.384,3,0,2.117,2,1,1.653,2,1,1.801,1,13,1,1.169,4.205307263,2.861,4,4,2,1,2,2,2,1,2,5,3,2,5,2,3,3,4,1,4,3,2,2,2,1,1,5,3,4,3,4,4,4,3,3,5,4,5,4,3,4,3,2,0
112,10,1,Work,Easel,Sean,Aquarium,14.239,18,3.583333333,1.139,object,place,person,1,5.401,2,1,2.699,4,1,3.003,4,1,1.021,1,1,0.986,2,1,3.22,1,4,3,1.189,3.455555556,1.623,2,4,4,3,3,3,4,2,4,3,2,4,2,4,3,4,4,2,4,1,3,2,4,3,2,4,4,3,2,5,3,2,2,2,4,3,3,3,1,2,2,1,0
112,21,2,Home,Gardengloves,Britney,Cabin,6.859,13,4.516666667,0.807,place,object,person,1,2.836,2,1,2.304,1,1,1.976,3,1,0.919,1,1,2.142,2,1,1.584,2,14,2,1.288,5.35,1.619,2,4,4,3,3,3,4,2,4,3,2,4,2,4,3,4,4,2,4,1,3,2,4,3,2,4,4,3,2,5,3,2,2,2,4,3,3,3,1,2,2,1,0
112,9,3,Shopping,Duster,Robin,Kitchen,11.2,2,3.65,1.207,place,object,person,1,8.651,4,1,5.752,2,0,2.141,2,1,3.318,2,1,3.317,1,1,4.096,1,10,1,2.867,5.572222222,3.204,2,4,4,3,3,3,4,2,4,3,2,4,2,4,3,4,4,2,4,1,3,2,4,3,2,4,4,3,2,5,3,2,2,2,4,3,3,3,1,2,2,1,0
112,19,4,Holiday,Wine,Julia,Pool,5.583,10,1.027777778,3.487,person,object,place,0,14.794,2,0,4.729,1,1,5.363,2,1,4.45,2,1,1.219,1,1,2.435,2,8,2,2.501,2.283333333,2.372,2,4,4,3,3,3,4,2,4,3,2,4,2,4,3,4,4,2,4,1,3,2,4,3,2,4,4,3,2,5,3,2,2,2,4,3,3,3,1,2,2,1,0
112,8,5,Competition,Goggles,Princess,Savannah,15.609,7,2.183333333,2.74,place,object,person,1,4.051,1,1,0.65,1,1,3.034,4,1,2.076,1,0,0.97,1,1,2.804,1,18,1,1.205,4.044444444,2.02,2,4,4,3,3,3,4,2,4,3,2,4,2,4,3,4,4,2,4,1,3,2,4,3,2,4,4,3,2,5,3,2,2,2,4,3,3,3,1,2,2,1,0
112,11,6,Games,Binoculars,Harrison,Lake,11.637,3,1.111111111,1.303,object,place,person,1,20.003,3,1,2.305,2,1,5.702,2,1,3.26,1,1,2.749,1,1,2.342,2,23,3,0.926,2.738888889,3.439,2,4,4,3,3,3,4,2,4,3,2,4,2,4,3,4,4,2,4,1,3,2,4,3,2,4,4,3,2,5,3,2,2,2,4,3,3,3,1,2,2,1,0
112,6,7,Sightseeing,Ladder,Keanu,Beach,12.759,22,1.927777778,1.637,object,place,person,1,7.018,2,1,3.537,1,1,5.336,3,1,2.216,2,1,1.151,2,1,1.974,2,16,2,1.518,1.927777778,2.19,2,4,4,3,3,3,4,2,4,3,2,4,2,4,3,4,4,2,4,1,3,2,4,3,2,4,4,3,2,5,3,2,2,2,4,3,3,3,1,2,2,1,0
112,2,8,Volunteer,Flowers,Jennifer,Waterfall,15.578,5,4.422222222,4.056,person,place,object,1,2.775,1,1,1.551,3,1,0.974,4,1,1.75,2,1,0.909,1,1,0.867,1,20,1,0.468,5.916666667,1.771,2,4,4,3,3,3,4,2,4,3,2,4,2,4,3,4,4,2,4,1,3,2,4,3,2,4,4,3,2,5,3,2,2,2,4,3,3,3,1,2,2,1,0
112,5,9,Party,Satchel,Judi,Bowling,6.441,24,5.961111111,0.453,place,person,object,1,5.29,3,1,1.767,3,1,1.868,1,0,1.72,1,0,1.033,2,1,1.551,2,3,1,1.571,5.961111111,1.639,2,4,4,3,3,3,4,2,4,3,2,4,2,4,3,4,4,2,4,1,3,2,4,3,2,4,4,3,2,5,3,2,2,2,4,3,3,3,1,2,2,1,0
112,14,10,Relaxing,Stroller,Dolly,Ski,13.427,9,3.416666667,1.503,place,person,object,1,4.851,1,1,2.153,1,1,3.336,2,1,4.867,2,1,2.356,2,1,1.117,1,6,1,0.501,4.427777778,1.303,2,4,4,3,3,3,4,2,4,3,2,4,2,4,3,4,4,2,4,1,3,2,4,3,2,4,4,3,2,5,3,2,2,2,4,3,3,3,1,2,2,1,0
112,22,11,Travel,Computer,George,Field,12.917,14,2.233333333,1.001,object,person,place,1,8.175,4,1,2.967,1,1,0.986,1,1,1.373,1,1,2.519,2,1,2.55,2,7,1,2.0,4.027777778,1.571,2,4,4,3,3,3,4,2,4,3,2,4,2,4,3,4,4,2,4,1,3,2,4,3,2,4,4,3,2,5,3,2,2,2,4,3,3,3,1,2,2,1,0
112,3,12,Music,Bike,Hugh,Lighthouse,,17,2.683333333,2.739,person,place,object,1,5.727,4,1,3.151,1,1,0.501,1,1,1.153,2,0,0.817,1,0,1.016,1,21,1,1.238,3.805555556,1.223,2,4,4,3,3,3,4,2,4,3,2,4,2,4,3,4,4,2,4,1,3,2,4,3,2,4,4,3,2,5,3,2,2,2,4,3,3,3,1,2,2,1,0
112,15,13,Celebration,Football,Meryl,Harbor,3.925,12,2.261111111,2.14,object,person,place,0,15.352,3,1,3.242,3,1,5.475,4,1,2.344,2,1,0.918,1,1,1.192,1,19,1,0.567,3.438888889,1.969,2,4,4,3,3,3,4,2,4,3,2,4,2,4,3,4,4,2,4,1,3,2,4,3,2,4,4,3,2,5,3,2,2,2,4,3,3,3,1,2,2,1,0
112,12,14,Studying,Trampoline,Elvis,Classroom,,20,2.355555556,1.821,place,person,object,1,3.373,4,1,2.267,4,1,1.484,4,1,3.534,2,0,1.083,1,0,1.188,2,15,1,0.589,3.538888889,1.018,2,4,4,3,3,3,4,2,4,3,2,4,2,4,3,4,4,2,4,1,3,2,4,3,2,4,4,3,2,5,3,2,2,2,4,3,3,3,1,2,2,1,0
112,4,15,Exercise,Beachball,Will,Casino,6.61,4,3.944444444,1.856,object,person,place,1,6.184,1,1,1.434,2,1,0.8,2,0,3.401,2,0,1.972,1,1,1.471,1,17,2,0.901,4.827777778,1.734,2,4,4,3,3,3,4,2,4,3,2,4,2,4,3,4,4,2,4,1,3,2,4,3,2,4,4,3,2,5,3,2,2,2,4,3,3,3,1,2,2,1,0
112,7,16,Art,Headphones,Nicole,Avenue,,23,4.294444444,0.986,person,object,place,1,5.001,2,1,1.217,2,1,1.356,3,0,1.617,2,1,1.827,2,1,0.956,1,13,3,0.751,2.872222222,2.955,2,4,4,3,3,3,4,2,4,3,2,4,2,4,3,4,4,2,4,1,3,2,4,3,2,4,4,3,2,5,3,2,2,2,4,3,3,3,1,2,2,1,0
112,18,17,DIY,Chair,Beyonce,Winecellar,11.508,19,3.538888889,1.637,person,object,place,1,1.855,2,1,2.284,3,1,1.809,4,1,1.839,2,1,1.118,1,0,1.534,2,9,1,1.435,4.127777778,1.603,2,4,4,3,3,3,4,2,4,3,2,4,2,4,3,4,4,2,4,1,3,2,4,3,2,4,4,3,2,5,3,2,2,2,4,3,3,3,1,2,2,1,0
112,16,18,Winter,Record,David,DiningRoom,5.51,6,4.522222222,1.452,place,person,object,1,5.768,2,1,0.884,2,1,1.642,3,1,1.824,1,1,1.168,1,1,0.889,1,24,1,0.651,5.905555556,1.819,2,4,4,3,3,3,4,2,4,3,2,4,2,4,3,4,4,2,4,1,3,2,4,3,2,4,4,3,2,5,3,2,2,2,4,3,3,3,1,2,2,1,0
112,23,19,Eating,Hammock,Brad,Restaurant,8.17,8,4.683333333,1.057,person,object,place,1,3.169,1,1,1.42,3,1,1.12,3,0,2.539,2,1,0.918,2,1,1.3,2,2,2,1.934,5.961111111,1.856,2,4,4,3,3,3,4,2,4,3,2,4,2,4,3,4,4,2,4,1,3,2,4,3,2,4,4,3,2,5,3,2,2,2,4,3,3,3,1,2,2,1,0
112,20,20,Friends,Backpack,Daniel,Bridge,,11,4.444444444,1.055,object,place,person,1,3.242,3,1,1.743,4,1,0.901,2,0,1.841,1,1,0.821,1,1,0.867,1,5,1,0.75,5.905555556,1.854,2,4,4,3,3,3,4,2,4,3,2,4,2,4,3,4,4,2,4,1,3,2,4,3,2,4,4,3,2,5,3,2,2,2,4,3,3,3,1,2,2,1,0
112,13,21,Errands,Stopwatch,Tom,Icerink,5.301,15,1.072222222,0.87,place,object,person,1,7.65,3,0,6.118,3,0,3.537,4,1,2.942,1,1,1.483,1,0,1.956,1,1,2,3.267,1.072222222,1.736,2,4,4,3,3,3,4,2,4,3,2,4,2,4,3,4,4,2,4,1,3,2,4,3,2,4,4,3,2,5,3,2,2,2,4,3,3,3,1,2,2,1,0
112,1,22,Date,Jug,Helena,Studio,16.369,16,3.433333333,0.937,person,place,object,1,9.922,3,1,1.5,3,1,1.374,2,1,1.751,1,0,1.343,1,1,1.149,2,11,2,2.085,4.394444444,1.59,2,4,4,3,3,3,4,2,4,3,2,4,2,4,3,4,4,2,4,1,3,2,4,3,2,4,4,3,2,5,3,2,2,2,4,3,3,3,1,2,2,1,0
112,24,23,Family,Extinguisher,Anne,Basketball,15.377,21,1.133333333,0.503,person,place,object,1,6.12,4,1,2.519,2,1,1.785,3,0,2.284,2,1,0.969,1,0,1.067,1,22,1,0.623,3.577777778,5.637,2,4,4,3,3,3,4,2,4,3,2,4,2,4,3,4,4,2,4,1,3,2,4,3,2,4,4,3,2,5,3,2,2,2,4,3,3,3,1,2,2,1,0
112,17,24,Summer,Puppy,Sandra,Circus,8.177,1,4.588888889,4.603,object,person,place,1,6.853,4,1,3.645,4,1,2.234,1,1,3.26,2,1,2.918,1,0,1.469,1,12,3,1.892,4.277777778,4.555,2,4,4,3,3,3,4,2,4,3,2,4,2,4,3,4,4,2,4,1,3,2,4,3,2,4,4,3,2,5,3,2,2,2,4,3,3,3,1,2,2,1,0
113,12,1,Studying,Trampoline,Elvis,Classroom,17.52,15,3.069444444,1.911,place,person,object,1,24.747,4,1,2.369,4,1,4.888,4,0,1.922,1,1,1.566,2,1,2.459,1,7,1,1.161,1.606481481,1.879,2,2,3,1,4,3,1,2,3,4,4,4,4,4,3,4,3,1,4,4,3,3,3,3,4,2,3,4,3,2,4,4,4,4,4,2,3,3,4,4,3,3,1
113,6,2,Sightseeing,Ladder,Keanu,Beach,,14,1.606481481,0.964,object,place,person,0,52.361,4,0,10.726,2,0,10.036,2,0,2.674,1,1,1.076,2,0,17.156,1,2,1,1.223,1.606481481,2.88,2,2,3,1,4,3,1,2,3,4,4,4,4,4,3,4,3,1,4,4,3,3,3,3,4,2,3,4,3,2,4,4,4,4,4,2,3,3,4,4,3,3,1
113,21,3,Home,Gardengloves,Britney,Cabin,,21,3.537037037,1.232,place,object,person,1,76.878,2,1,2.822,1,1,3.669,3,1,2.69,1,0,2.23,1,0,2.143,1,22,1,1.62,1.75462963,3.073,2,2,3,1,4,3,1,2,3,4,4,4,4,4,3,4,3,1,4,4,3,3,3,3,4,2,3,4,3,2,4,4,4,4,4,2,3,3,4,4,3,3,1
113,8,4,Competition,Goggles,Princess,Savannah,,13,3.236111111,0.666,place,object,person,1,74.04,1,0,2.288,2,1,5.658,4,1,2.047,1,1,2.434,2,0,1.908,2,14,1,0.921,2.375,3.06,2,2,3,1,4,3,1,2,3,4,4,4,4,4,3,4,3,1,4,4,3,3,3,3,4,2,3,4,3,2,4,4,4,4,4,2,3,3,4,4,3,3,1
113,16,5,Winter,Record,David,DiningRoom,,22,3.180555556,2.009,place,person,object,1,72.473,2,1,10.178,2,1,3.798,3,0,2.552,2,1,2.402,1,1,1.629,1,24,1,0.668,1.990740741,3.751,2,2,3,1,4,3,1,2,3,4,4,4,4,4,3,4,3,1,4,4,3,3,3,3,4,2,3,4,3,2,4,4,4,4,4,2,3,3,4,4,3,3,1
113,1,6,Date,Jug,Helena,Studio,,4,1.726851852,2.033,person,place,object,0,61.002,2,0,19.737,4,1,11.598,2,0,5.148,2,1,2.82,2,1,4.002,2,4,1,1.112,1.791666667,2.46,2,2,3,1,4,3,1,2,3,4,4,4,4,4,3,4,3,1,4,4,3,3,3,3,4,2,3,4,3,2,4,4,4,4,4,2,3,3,4,4,3,3,1
113,3,7,Music,Bike,Hugh,Lighthouse,,12,3.189814815,1.86,person,place,object,1,35.542,4,1,7.378,1,1,5.913,1,1,2.348,2,0,1.141,1,0,1.978,1,9,1,0.743,2.351851852,4.475,2,2,3,1,4,3,1,2,3,4,4,4,4,4,3,4,3,1,4,4,3,3,3,3,4,2,3,4,3,2,4,4,4,4,4,2,3,3,4,4,3,3,1
113,22,8,Travel,Computer,George,Field,18.654,1,4.12962963,4.433,object,person,place,0,9.891,1,1,12.956,1,1,9.464,1,0,12.167,2,0,5.176,1,0,5.619,1,1,1,2.108,4.981481481,4.979,2,2,3,1,4,3,1,2,3,4,4,4,4,4,3,4,3,1,4,4,3,3,3,3,4,2,3,4,3,2,4,4,4,4,4,2,3,3,4,4,3,3,1
113,19,9,Holiday,Wine,Julia,Pool,,7,2.430555556,2.836,person,object,place,1,14.914,3,1,7.003,4,1,4.356,2,1,2.215,2,1,2.04,1,1,2.261,2,23,1,2.425,3.953703704,4.402,2,2,3,1,4,3,1,2,3,4,4,4,4,4,3,4,3,1,4,4,3,3,3,3,4,2,3,4,3,2,4,4,4,4,4,2,3,3,4,4,3,3,1
113,7,10,Art,Headphones,Nicole,Avenue,,6,1.606481481,0.953,person,object,place,0,57.803,4,0,11.059,3,0,7.538,4,1,3.464,1,0,9.965,1,0,2.605,2,8,1,2.162,1.606481481,2.741,2,2,3,1,4,3,1,2,3,4,4,4,4,4,3,4,3,1,4,4,3,3,3,3,4,2,3,4,3,2,4,4,4,4,4,2,3,3,4,4,3,3,1
113,11,11,Games,Binoculars,Harrison,Lake,,9,2.953703704,4.753,object,place,person,1,11.315,3,1,6.111,2,1,4.522,2,0,2.489,2,1,3.539,1,1,2.86,2,19,1,0.943,1.736111111,3.731,2,2,3,1,4,3,1,2,3,4,4,4,4,4,3,4,3,1,4,4,3,3,3,3,4,2,3,4,3,2,4,4,4,4,4,2,3,3,4,4,3,3,1
113,17,12,Summer,Puppy,Sandra,Circus,18.887,19,3.222222222,1.78,object,person,place,1,6.476,4,0,4.975,3,1,5.178,1,1,1.883,2,0,1.592,2,0,2.418,1,12,1,0.924,2.097222222,2.624,2,2,3,1,4,3,1,2,3,4,4,4,4,4,3,4,3,1,4,4,3,3,3,3,4,2,3,4,3,2,4,4,4,4,4,2,3,3,4,4,3,3,1
113,10,13,Work,Easel,Sean,Aquarium,17.645,10,3.189814815,1.759,object,place,person,1,7.117,2,1,4.917,4,1,3.457,4,1,2.461,1,1,8.925,2,1,2.455,1,17,1,1.056,2.300925926,2.527,2,2,3,1,4,3,1,2,3,4,4,4,4,4,3,4,3,1,4,4,3,3,3,3,4,2,3,4,3,2,4,4,4,4,4,2,3,3,4,4,3,3,1
113,2,14,Volunteer,Flowers,Jennifer,Waterfall,,18,3.194444444,1.964,person,place,object,1,18.394,1,1,3.791,3,1,4.822,4,1,2.308,2,1,1.326,1,0,1.739,2,21,1,1.572,2.467592593,2.313,2,2,3,1,4,3,1,2,3,4,4,4,4,4,3,4,3,1,4,4,3,3,3,3,4,2,3,4,3,2,4,4,4,4,4,2,3,3,4,4,3,3,1
113,9,15,Shopping,Duster,Robin,Kitchen,,11,3.430555556,1.075,place,object,person,1,68.864,4,1,3.816,2,1,2.978,1,1,2.642,2,1,2.994,1,0,2.653,2,5,1,1.013,2.203703704,4.778,2,2,3,1,4,3,1,2,3,4,4,4,4,4,3,4,3,1,4,4,3,3,3,3,4,2,3,4,3,2,4,4,4,4,4,2,3,3,4,4,3,3,1
113,14,16,Relaxing,Stroller,Dolly,Ski,,2,3.925925926,3.487,place,person,object,1,21.364,1,1,4.325,1,1,4.008,2,1,6.043,2,0,4.031,1,0,3.31,2,11,1,0.977,4.560185185,3.361,2,2,3,1,4,3,1,2,3,4,4,4,4,4,3,4,3,1,4,4,3,3,3,3,4,2,3,4,3,2,4,4,4,4,4,2,3,3,4,4,3,3,1
113,5,17,Party,Satchel,Judi,Bowling,,17,3.37037037,2.464,place,person,object,1,25.575,3,1,3.39,3,1,4.729,1,1,2.301,2,0,1.625,2,1,1.869,2,20,1,1.149,2.921296296,3.114,2,2,3,1,4,3,1,2,3,4,4,4,4,4,3,4,3,1,4,4,3,3,3,3,4,2,3,4,3,2,4,4,4,4,4,2,3,3,4,4,3,3,1
113,4,18,Exercise,Beachball,Will,Casino,,3,2.921296296,2.711,object,person,place,0,28.989,2,1,42.403,2,1,4.49,2,0,7.315,2,0,2.927,1,1,4.038,1,16,1,1.049,3.50462963,3.502,2,2,3,1,4,3,1,2,3,4,4,4,4,4,3,4,3,1,4,4,3,3,3,3,4,2,3,4,3,2,4,4,4,4,4,2,3,3,4,4,3,3,1
113,13,19,Errands,Stopwatch,Tom,Icerink,,8,1.736111111,2.933,place,object,person,1,18.497,3,1,4.263,4,1,2.741,1,0,2.35,2,0,2.407,2,1,2.379,2,6,1,1.263,2.430555556,1.671,2,2,3,1,4,3,1,2,3,4,4,4,4,4,3,4,3,1,4,4,3,3,3,3,4,2,3,4,3,2,4,4,4,4,4,2,3,3,4,4,3,3,1
113,20,20,Friends,Backpack,Daniel,Bridge,,20,3.935185185,1.727,object,place,person,1,12.128,3,1,3.348,4,1,1.821,2,0,2.855,1,0,2.541,2,1,2.11,1,3,1,0.928,3.282407407,2.221,2,2,3,1,4,3,1,2,3,4,4,4,4,4,3,4,3,1,4,4,3,3,3,3,4,2,3,4,3,2,4,4,4,4,4,2,3,3,4,4,3,3,1
113,24,21,Family,Extinguisher,Anne,Basketball,,23,3.25,3.181,person,place,object,1,24.923,4,1,4.674,2,1,3.116,3,0,2.535,2,0,1.859,2,0,2.011,1,18,2,3.553,1.949074074,2.512,2,2,3,1,4,3,1,2,3,4,4,4,4,4,3,4,3,1,4,4,3,3,3,3,4,2,3,4,3,2,4,4,4,4,4,2,3,3,4,4,3,3,1
113,15,22,Celebration,Football,Meryl,Harbor,,24,3.518518519,1.992,object,person,place,1,8.245,1,1,3.392,3,1,3.805,4,0,1.886,1,1,1.403,1,0,1.688,2,10,1,0.896,2.291666667,2.797,2,2,3,1,4,3,1,2,3,4,4,4,4,4,3,4,3,1,4,4,3,3,3,3,4,2,3,4,3,2,4,4,4,4,4,2,3,3,4,4,3,3,1
113,18,23,DIY,Chair,Beyonce,Winecellar,,5,1.708333333,1.701,person,object,place,0,35.615,4,0,37.112,2,1,15.041,4,1,39.349,2,0,2.004,2,1,4.138,1,15,2,2.99,1.49537037,3.119,2,2,3,1,4,3,1,2,3,4,4,4,4,4,3,4,3,1,4,4,3,3,3,3,4,2,3,4,3,2,4,4,4,4,4,2,3,3,4,4,3,3,1
113,23,24,Eating,Hammock,Brad,Restaurant,,16,3.050925926,2.404,person,object,place,1,24.442,1,1,5.177,3,0,2.939,2,1,2.737,1,1,1.819,2,1,2.348,2,13,1,1.056,2.305555556,2.741,2,2,3,1,4,3,1,2,3,4,4,4,4,4,3,4,3,1,4,4,3,3,3,3,4,2,3,4,3,2,4,4,4,4,4,2,3,3,4,4,3,3,1
116,11,1,Games,Binoculars,Harrison,Lake,18.7192,14,1.3125,3.6762,object,place,person,1,13.9525,3,1,2.0563,2,1,5.9328,2,0,4.0649,2,1,5.3823,1,1,7.5225,2,7,1,1.6238,4.26171875,3.0225,2,2,3,3,4,4,4,3,4,2,3,4,1,2,5,5,2,1,5,5,3,2,2,4,2,3,1,1,1,1,1,1,1,1,1,1,1,1,1,1,1,1,1
116,2,2,Volunteer,Flowers,Jennifer,Waterfall,14.6417,10,2.243489583,4.4321,person,place,object,1,15.0904,1,0,3.744,4,1,5.936,4,0,8.8992,1,1,1.5663,1,1,1.9913,1,9,1,0.9535,4.782552083,3.5444,2,2,3,3,4,4,4,3,4,2,3,4,1,2,5,5,2,1,5,5,3,2,2,4,2,3,1,1,1,1,1,1,1,1,1,1,1,1,1,1,1,1,1
116,18,3,DIY,Chair,Beyonce,Winecellar,,13,1.104166667,2.4695,person,object,place,1,20.1638,2,0,10.4449,4,0,11.1462,3,1,4.1957,2,1,9.1933,1,1,6.7203,1,15,2,1.5528,3.526041667,2.5533,2,2,3,3,4,4,4,3,4,2,3,4,1,2,5,5,2,1,5,5,3,2,2,4,2,3,1,1,1,1,1,1,1,1,1,1,1,1,1,1,1,1,1
116,4,4,Exercise,Beachball,Will,Casino,,6,1.084635417,2.5035,object,person,place,1,23.9712,1,0,10.6057,4,0,9.617,1,1,2.8593,1,0,4.9812,1,1,5.2843,1,13,1,0.5638,2.145833333,2.6075,2,2,3,3,4,4,4,3,4,2,3,4,1,2,5,5,2,1,5,5,3,2,2,4,2,3,1,1,1,1,1,1,1,1,1,1,1,1,1,1,1,1,1
116,9,5,Shopping,Duster,Robin,Kitchen,,21,1.045572917,2.4025,place,object,person,1,9.3475,4,1,14.6002,2,1,22.7885,1,0,6.873,1,0,3.7278,2,1,5.0853,1,2,1,1.2721,2.764322917,1.7562,2,2,3,3,4,4,4,3,4,2,3,4,1,2,5,5,2,1,5,5,3,2,2,4,2,3,1,1,1,1,1,1,1,1,1,1,1,1,1,1,1,1,1
116,20,6,Friends,Backpack,Daniel,Bridge,14.9548,7,2.302083333,6.4639,object,place,person,1,50.4485,3,1,2.4064,4,1,5.5658,2,1,6.4036,2,1,1.8025,1,1,5.9281,1,1,1,4.2504,3.44140625,2.6074,2,2,3,3,4,4,4,3,4,2,3,4,1,2,5,5,2,1,5,5,3,2,2,4,2,3,1,1,1,1,1,1,1,1,1,1,1,1,1,1,1,1,1
116,13,7,Errands,Stopwatch,Tom,Icerink,,23,1.052083333,2.602,place,object,person,1,15.5252,3,1,14.1166,4,1,3.413,1,0,10.1177,2,0,2.8643,2,0,2.9447,1,6,1,0.4489,4.255208333,2.0643,2,2,3,3,4,4,4,3,4,2,3,4,1,2,5,5,2,1,5,5,3,2,2,4,2,3,1,1,1,1,1,1,1,1,1,1,1,1,1,1,1,1,1
116,14,8,Relaxing,Stroller,Dolly,Ski,15.227,15,1.169270833,2.7563,place,person,object,0,20.7409,3,0,9.3587,3,1,11.7632,2,0,5.2899,1,0,2.2339,1,1,2.7959,1,5,1,0.6028,3.12890625,9.391,2,2,3,3,4,4,4,3,4,2,3,4,1,2,5,5,2,1,5,5,3,2,2,4,2,3,1,1,1,1,1,1,1,1,1,1,1,1,1,1,1,1,1
116,7,9,Art,Headphones,Nicole,Avenue,13.1022,8,1.579427083,3.803,person,object,place,0,19.9536,1,0,5.7635,1,0,7.6004,2,1,7.927,1,0,5.1557,1,1,5.5993,1,14,1,2.8245,3.94921875,3.8552,2,2,3,3,4,4,4,3,4,2,3,4,1,2,5,5,2,1,5,5,3,2,2,4,2,3,1,1,1,1,1,1,1,1,1,1,1,1,1,1,1,1,1
116,16,10,Winter,Record,David,DiningRoom,,4,1.755208333,4.0524,place,person,object,1,25.4275,2,1,5.8637,2,1,9.0946,3,1,20.1575,1,0,5.648,2,1,4.5882,1,21,1,0.4109,4.717447917,4.2765,2,2,3,3,4,4,4,3,4,2,3,4,1,2,5,5,2,1,5,5,3,2,2,4,2,3,1,1,1,1,1,1,1,1,1,1,1,1,1,1,1,1,1
116,15,11,Celebration,Football,Meryl,Harbor,,2,1.768229167,2.9094,object,person,place,1,7.271,1,1,8.4233,3,1,4.3295,4,1,3.9424,2,0,8.4283,2,1,2.7259,1,24,1,0.8748,4.7109375,3.7616,2,2,3,3,4,4,4,3,4,2,3,4,1,2,5,5,2,1,5,5,3,2,2,4,2,3,1,1,1,1,1,1,1,1,1,1,1,1,1,1,1,1,1
116,1,12,Date,Jug,Helena,Studio,,16,1.026041667,2.4755,person,place,object,0,13.7138,2,1,11.0191,3,0,7.0284,4,0,4.4124,2,0,7.8022,1,1,2.8174,2,4,1,0.6717,2.842447917,6.6007,2,2,3,3,4,4,4,3,4,2,3,4,1,2,5,5,2,1,5,5,3,2,2,4,2,3,1,1,1,1,1,1,1,1,1,1,1,1,1,1,1,1,1
116,10,13,Work,Easel,Sean,Aquarium,13.2048,12,1.071614583,2.6839,object,place,person,1,14.4052,2,1,12.567,4,0,8.9311,1,1,3.0043,1,0,3.5085,1,1,6.0343,1,22,1,1.5264,3.584635417,3.49,2,2,3,3,4,4,4,3,4,2,3,4,1,2,5,5,2,1,5,5,3,2,2,4,2,3,1,1,1,1,1,1,1,1,1,1,1,1,1,1,1,1,1
116,12,14,Studying,Trampoline,Elvis,Classroom,8.9259,1,2.256510417,8.9131,place,person,object,1,10.1977,4,1,7.9712,4,1,9.856,4,0,10.7007,1,1,6.9241,2,1,3.052,1,16,1,0.7131,4.7890625,5.1295,2,2,3,3,4,4,4,3,4,2,3,4,1,2,5,5,2,1,5,5,3,2,2,4,2,3,1,1,1,1,1,1,1,1,1,1,1,1,1,1,1,1,1
